,Acc_ts,Acc_x,Acc_y,Acc_z,Gyro_ts,Gyro_x,Gyro_y,Gyro_z,Mag_ts,Mag_x,Mag_y,Mag_z
0,0.0,-9.515625,-0.82421875,-0.27734375,1.313,-0.130859375,-0.00390625,-0.0546875,-15.014,33.8125,-6.0625,-44.5625
1,7.6499999999999995,-9.43359375,-0.87109375,-0.48046875,5.92,-0.1328125,0.00390625,-0.0625,7.635000000000001,33.9375,-6.625,-43.3125
2,23.421,-9.421875,-0.8515625,-0.671875,23.227999999999998,-0.11328125,0.001953125,-0.056640625,23.407,33.0625,-6.375,-39.75
3,33.515,-9.3671875,-0.8125,-0.74609375,30.755000000000003,-0.1328125,-0.021484375,-0.029296875,33.321000000000005,33.875,-6.1875,-40.5625
4,43.356,-9.265625,-0.7578125,-0.73828125,40.978,-0.138671875,-0.046875,-0.033203125,43.361999999999995,34.4375,-5.75,-40.6875
5,53.18,-9.26953125,-0.7578125,-0.6796875,50.941,-0.146484375,-0.064453125,-0.041015625,53.203,33.5625,-6.1875,-39.875
6,63.04899999999999,-9.19921875,-0.79296875,-0.65234375,60.803999999999995,-0.171875,-0.0546875,-0.0390625,63.17100000000001,33.6875,-5.375,-43.25
7,72.867,-9.17578125,-0.77734375,-0.70703125,71.037,-0.189453125,-0.03515625,-0.04296875,72.98,33.8125,-6.625,-41.9375
8,82.83600000000001,-9.21484375,-0.82421875,-0.7578125,81.063,-0.21875,-0.05859375,-0.04296875,82.948,33.875,-6.1875,-42.5625
9,92.77199999999999,-8.82421875,-1.08203125,-0.69140625,90.932,-0.232421875,-0.0625,-0.041015625,92.779,34.6875,-6.4375,-43.5
10,102.677,-9.83984375,-0.8828125,-0.5859375,100.937,-0.19140625,-0.111328125,-0.087890625,102.684,33.875,-6.625,-42.5625
11,112.486,-9.546875,-1.00390625,-0.56640625,111.114,-0.158203125,-0.115234375,0.048828125,112.49000000000001,33.875,-5.8125,-42.5625
12,122.387,-9.23046875,-0.86328125,-0.65234375,121.007,-0.173828125,-0.083984375,0.08203125,122.39,34.5,-5.8125,-44.0625
13,131.10399999999998,-9.0859375,-0.91796875,-0.65234375,130.934,-0.16015625,-0.08203125,0.080078125,131.047,34.75,-6.1875,-44.125
14,141.03,-9.0703125,-0.9296875,-0.66015625,140.95499999999998,-0.169921875,-0.10546875,0.044921875,140.966,33.125,-6.0625,-43.125
15,150.911,-9.421875,-0.671875,-0.52734375,150.989,-0.158203125,-0.119140625,0.126953125,151.01600000000002,34.9375,-6.0,-43.5625
16,163.51,-9.25,-0.59375,-0.515625,163.438,-0.13671875,-0.068359375,0.16796875,163.413,33.5625,-5.8125,-41.875
17,173.565,-9.203125,-0.57421875,-0.48828125,173.38899999999998,-0.134765625,-0.05078125,0.15234375,173.461,33.5625,-6.1875,-41.875
18,183.48700000000002,-9.24609375,-0.5546875,-0.44921875,183.30599999999998,-0.12109375,-0.048828125,0.150390625,183.38199999999998,33.9375,-5.8125,-43.3125
19,193.432,-9.24609375,-0.44921875,-0.57421875,193.435,-0.087890625,-0.064453125,0.171875,193.41,33.125,-6.6875,-43.125
20,203.403,-8.9921875,-0.3828125,-0.6796875,203.524,-0.130859375,-0.041015625,0.146484375,203.697,33.3125,-5.8125,-42.4375
21,213.285,-9.125,-0.35546875,-0.74609375,213.406,-0.173828125,-0.01171875,0.1015625,213.464,33.875,-6.1875,-42.5625
22,223.229,-9.13671875,-0.421875,-0.765625,220.825,-0.2265625,0.025390625,0.08203125,223.236,33.875,-6.1875,-42.5625
23,233.383,-9.14453125,-0.5546875,-0.7578125,230.976,-0.302734375,0.05859375,0.03515625,233.389,33.75,-6.4375,-43.9375
24,243.21699999999998,-9.2890625,-0.6796875,-0.7578125,240.769,-0.337890625,0.05078125,0.02734375,243.22299999999998,33.125,-6.4375,-43.125
25,253.16300000000004,-9.30859375,-0.6796875,-0.66015625,250.97799999999998,-0.322265625,0.009765625,0.029296875,253.16899999999998,33.6875,-6.875,-43.3125
26,263.033,-9.37890625,-0.61328125,-0.5546875,260.998,-0.306640625,0.01171875,0.04296875,263.102,34.1875,-5.8125,-43.375
27,270.93899999999996,-9.25,-0.69921875,-0.46875,268.513,-0.294921875,-0.00390625,0.0546875,270.853,33.875,-5.8125,-45.25
28,280.884,-9.140625,-0.70703125,-0.27734375,278.387,-0.265625,-0.0390625,0.05078125,280.688,33.75,-6.0625,-43.875
29,290.7,-9.5234375,-0.56640625,-0.3046875,288.477,-0.197265625,-0.0234375,0.044921875,290.597,34.375,-6.4375,-45.4375
30,300.55199999999996,-9.23046875,-0.52734375,-0.375,298.601,-0.208984375,0.0078125,0.078125,300.555,34.4375,-6.0,-43.4375
31,312.465,-9.265625,-0.421875,-0.62109375,311.005,-0.279296875,0.119140625,0.076171875,312.47200000000004,33.875,-5.8125,-45.25
32,320.88800000000003,-9.2421875,-0.48046875,-0.765625,320.863,-0.34765625,0.126953125,0.10546875,320.899,34.125,-6.25,-45.375
33,330.886,-9.296875,-0.3828125,-0.8125,330.964,-0.455078125,0.150390625,0.087890625,331.048,34.25,-6.4375,-44.0625
34,340.165,-9.17578125,-0.32421875,-0.9296875,338.49600000000004,-0.55078125,0.18359375,0.072265625,339.972,33.5625,-6.875,-42.5625
35,353.5,-9.04296875,-0.421875,-0.8984375,353.52,-0.703125,0.181640625,0.025390625,353.828,33.75,-6.875,-43.9375
36,363.56100000000004,-9.2265625,-0.46875,-0.74609375,363.482,-0.7578125,0.17578125,0.00390625,363.458,33.6875,-5.8125,-43.25
37,373.46299999999997,-9.43359375,-0.48046875,-0.6015625,373.483,-0.763671875,0.193359375,0.015625,373.358,33.75,-6.0625,-43.875
38,383.408,-9.25390625,-0.39453125,-0.32421875,383.413,-0.69921875,0.162109375,0.017578125,383.58500000000004,33.9375,-6.0,-43.3125
39,390.984,-9.12109375,-0.41015625,-0.23046875,390.901,-0.62109375,0.1953125,-0.01171875,390.993,34.0625,-6.0,-42.0
40,401.176,-9.05859375,-0.48828125,-0.26953125,401.13599999999997,-0.5625,0.1953125,-0.044921875,401.138,34.25,-5.5625,-44.0
41,410.90700000000004,-9.23046875,-0.46875,-0.515625,410.91299999999995,-0.5625,0.26171875,-0.03125,411.109,34.25,-5.5625,-44.0
42,423.209,-9.12890625,-0.296875,-0.8046875,420.982,-0.61328125,0.3046875,-0.03125,423.279,33.1875,-6.375,-41.1875
43,433.00699999999995,-8.8125,-0.32421875,-1.04296875,430.818,-0.671875,0.326171875,-0.04296875,433.136,34.0625,-5.375,-44.5625
44,442.947,-9.015625,-0.31640625,-1.12890625,440.996,-0.771484375,0.3359375,-0.09375,443.05699999999996,33.5625,-6.0,-41.875
45,452.762,-9.203125,-0.421875,-1.46484375,450.989,-0.880859375,0.36328125,-0.140625,452.854,34.375,-5.375,-42.6875
46,462.657,-9.1640625,-0.53515625,-1.58984375,460.9,-0.962890625,0.310546875,-0.166015625,462.767,34.4375,-5.125,-43.375
47,472.584,-9.42578125,-0.69921875,-1.703125,471.084,-1.044921875,0.259765625,-0.18359375,472.677,34.125,-5.8125,-42.625
48,481.01300000000003,-9.6875,-0.6796875,-1.75390625,480.833,-1.140625,0.205078125,-0.197265625,480.954,34.625,-5.0625,-40.125
49,491.136,-9.46875,-0.7265625,-1.62890625,490.959,-1.1875,0.126953125,-0.15625,490.984,33.75,-4.9375,-41.25
50,506.114,-9.52734375,-0.671875,-1.21484375,505.93699999999995,-1.158203125,-0.046875,-0.078125,505.991,34.0625,-5.125,-41.9375
51,516.138,-9.515625,-0.65234375,-0.9765625,515.947,-1.130859375,-0.134765625,-0.001953125,516.116,34.5625,-4.9375,-42.0625
52,523.5649999999999,-9.34765625,-0.59375,-0.86328125,523.586,-1.138671875,-0.14453125,0.017578125,523.868,34.5625,-4.0625,-42.0
53,533.453,-9.22265625,-0.53515625,-0.8984375,533.473,-1.17578125,-0.11328125,0.021484375,533.5649999999999,33.4375,-4.75,-43.125
54,543.5029999999999,-9.1328125,-0.5078125,-0.9375,543.423,-1.248046875,-0.046875,0.013671875,543.4870000000001,34.5625,-4.125,-44.625
55,553.3639999999999,-9.16796875,-0.44140625,-1.0234375,553.486,-1.3359375,-0.00390625,-0.009765625,553.549,34.375,-4.5,-42.625
56,561.022,-8.984375,-0.48046875,-1.24609375,560.779,-1.419921875,0.03515625,-0.044921875,560.831,33.5625,-4.0625,-41.75
57,573.427,-9.203125,-0.40234375,-1.16796875,573.551,-1.560546875,0.0703125,-0.08984375,573.6719999999999,34.3125,-4.0625,-43.9375
58,583.4939999999999,-9.0,-0.5078125,-1.234375,583.299,-1.65234375,0.09765625,-0.146484375,583.48,33.4375,-4.5625,-43.125
59,593.5310000000001,-9.1953125,-0.6328125,-1.24609375,590.869,-1.703125,0.09765625,-0.203125,593.536,34.0,-4.0625,-43.25
60,603.403,-9.171875,-0.8515625,-1.12109375,601.038,-1.6953125,0.005859375,-0.1953125,603.408,34.625,-3.0,-42.0
61,613.179,-9.33984375,-0.8515625,-0.78515625,610.971,-1.6015625,-0.09375,-0.181640625,613.185,33.625,-3.0,-41.75
62,623.178,-9.421875,-0.77734375,-0.5859375,620.994,-1.4765625,-0.185546875,-0.13671875,623.186,34.375,-3.25,-44.5625
63,639.104,-9.16796875,-0.62109375,-0.3828125,638.538,-1.271484375,-0.173828125,-0.103515625,638.91,34.1875,-3.0625,-45.25
64,650.728,-9.17578125,-0.61328125,-0.515625,648.652,-1.181640625,-0.146484375,-0.095703125,650.799,33.5,-2.8125,-43.0625
65,660.7460000000001,-9.140625,-0.65234375,-0.52734375,658.519,-1.11328125,-0.103515625,-0.11328125,660.655,33.75,-2.1875,-43.125
66,670.611,-9.171875,-0.79296875,-0.6015625,668.541,-1.05078125,-0.08203125,-0.123046875,670.614,34.25,-2.1875,-45.1875
67,682.419,-9.515625,-0.83203125,-0.73828125,681.025,-0.978515625,-0.0546875,-0.138671875,682.4259999999999,34.0625,-2.1875,-43.8125
68,691.021,-9.5078125,-0.8046875,-0.765625,691.054,-0.998046875,-0.009765625,-0.111328125,691.1659999999999,33.9375,-2.0,-45.125
69,700.912,-9.2578125,-0.82421875,-0.8046875,700.9459999999999,-1.0390625,0.060546875,-0.0859375,700.858,34.5625,-1.75,-45.875
70,713.4789999999999,-9.37890625,-0.82421875,-0.94921875,713.3000000000001,-1.158203125,0.16796875,-0.056640625,713.5709999999999,34.25,-1.5625,-45.1875
71,723.5169999999999,-9.265625,-0.82421875,-1.29296875,723.4399999999999,-1.26171875,0.248046875,-0.046875,723.5319999999999,33.625,-1.5625,-44.3125
72,733.422,-9.2421875,-0.82421875,-1.6953125,733.5469999999999,-1.404296875,0.267578125,-0.046875,733.607,34.625,-2.1875,-44.5625
73,741.064,-9.4140625,-0.7265625,-1.97265625,741.038,-1.5234375,0.240234375,-0.037109375,741.0759999999999,34.375,-1.75,-43.875
74,751.193,-9.375,-0.52734375,-1.89453125,750.914,-1.61328125,0.169921875,-0.013671875,750.899,34.4375,-2.1875,-44.5
75,761.0369999999999,-9.2265625,-0.296875,-1.4453125,760.937,-1.578125,-0.013671875,0.015625,761.047,34.1875,-1.375,-44.4375
76,771.079,-9.125,-0.2890625,-0.74609375,771.043,-1.37890625,-0.263671875,0.01171875,771.043,33.4375,-1.125,-42.25
77,787.3670000000001,-9.1953125,-0.23828125,0.0078125,785.8870000000001,-1.0,-0.44921875,-0.041015625,787.4449999999999,34.1875,-0.9375,-44.5
78,800.9060000000001,-9.140625,-0.40234375,-0.02734375,800.925,-0.783203125,-0.380859375,-0.056640625,801.098,34.0625,-0.875,-43.125
79,813.031,-9.08203125,-0.3046875,-0.41015625,811.0070000000001,-0.71875,-0.265625,-0.0703125,813.039,34.0625,-0.5625,-45.6875
80,822.902,-9.03125,-0.40234375,-0.6328125,821.163,-0.7109375,-0.162109375,-0.109375,822.911,34.5,-0.6875,-45.1875
81,830.861,-9.0703125,-0.36328125,-0.73828125,828.5169999999999,-0.720703125,-0.080078125,-0.123046875,830.97,34.625,-0.9375,-46.625
82,840.769,-9.00390625,-0.56640625,-0.94921875,838.5219999999999,-0.744140625,-0.041015625,-0.1796875,840.88,34.3125,-0.5625,-45.75
83,850.828,-9.21484375,-0.6015625,-1.12109375,848.484,-0.814453125,-0.017578125,-0.22265625,850.734,33.5625,-0.5625,-45.5625
84,860.599,-9.13671875,-0.640625,-1.41796875,858.369,-0.912109375,0.03125,-0.23046875,860.6049999999999,34.125,-0.0625,-43.6875
85,872.519,-9.265625,-0.82421875,-1.6484375,871.032,-1.146484375,0.083984375,-0.294921875,872.5260000000001,34.6875,-0.75,-46.5625
86,880.9200000000001,-9.31640625,-0.8046875,-1.8203125,881.1099999999999,-1.32421875,0.1171875,-0.298828125,880.852,34.9375,-0.0625,-44.625
87,893.5640000000001,-9.52734375,-0.84375,-1.734375,893.5699999999999,-1.494140625,0.1015625,-0.28125,893.548,34.0625,0.5,-45.6875
88,903.437,-9.33984375,-0.84375,-1.46484375,903.442,-1.544921875,0.03515625,-0.279296875,903.551,34.125,0.3125,-46.4375
89,910.906,-8.87109375,-0.86328125,-1.51171875,911.045,-1.546875,-0.07421875,-0.287109375,910.9159999999999,34.125,1.0,-43.6875
90,925.9300000000001,-9.8828125,-0.31640625,-1.6953125,923.529,-1.498046875,-0.359375,-0.333984375,925.935,34.5,1.1875,-44.5
91,935.8870000000001,-9.82421875,-0.39453125,-1.46484375,933.45,-1.642578125,-0.361328125,-0.3125,935.893,34.75,1.1875,-47.125
92,945.682,-9.30078125,-0.71875,-1.21484375,943.647,-1.76171875,-0.408203125,-0.376953125,945.687,33.9375,1.1875,-46.3125
93,953.491,-9.14453125,-0.96875,-1.00390625,953.452,-1.865234375,-0.328125,-0.349609375,953.59,33.5,1.1875,-44.875
94,963.453,-7.67578125,-1.4765625,-1.2265625,961.007,-1.9140625,-0.341796875,-0.333984375,963.521,33.875,1.625,-45.5625
95,973.3770000000001,-9.5390625,-1.16015625,-1.12890625,971.167,-1.896484375,-0.513671875,-0.3515625,973.489,34.375,2.25,-45.625
96,983.327,-9.8984375,-1.25390625,-1.265625,981.103,-2.013671875,-0.501953125,-0.2421875,983.337,34.3125,2.4375,-45.0
97,993.195,-9.35546875,-1.42578125,-1.38671875,990.971,-2.197265625,-0.5546875,-0.177734375,993.204,33.1875,2.625,-46.0625
98,1003.033,-8.9609375,-1.37890625,-1.109375,1001.083,-2.345703125,-0.625,-0.09375,1003.1419999999999,33.3125,2.6875,-44.75
99,1012.845,-9.39453125,-1.2734375,-1.08984375,1010.985,-2.498046875,-0.578125,-0.046875,1012.9570000000001,33.3125,3.6875,-46.6875
100,1020.9209999999999,-9.33984375,-1.2734375,-1.00390625,1018.5010000000001,-2.66015625,-0.56640625,-0.041015625,1020.821,34.0625,3.6875,-47.5
101,1030.772,-8.7109375,-1.3515625,-0.74609375,1028.5720000000001,-2.841796875,-0.57421875,0.005859375,1030.577,34.0625,3.6875,-47.5
102,1042.7079999999999,-9.1640625,-1.21484375,-0.2578125,1040.9679999999998,-2.908203125,-0.5,0.056640625,1042.5390000000002,33.5625,4.125,-46.75
103,1050.414,-9.2890625,-1.12890625,0.14453125,1048.397,-2.857421875,-0.53125,0.046875,1050.51,33.625,4.75,-47.3125
104,1060.646,-9.09375,-1.234375,0.671875,1060.514,-2.708984375,-0.57421875,0.04296875,1060.521,33.625,4.75,-47.3125
105,1073.499,-8.78515625,-1.08984375,1.00390625,1073.5189999999998,-2.330078125,-0.62890625,0.048828125,1073.551,34.0,4.75,-46.1875
106,1083.9950000000001,-9.30859375,-0.9296875,1.21484375,1083.575,-2.033203125,-0.623046875,0.025390625,1083.704,32.8125,4.9375,-44.5
107,1093.619,-9.42578125,-0.7578125,1.24609375,1093.437,-1.77734375,-0.5390625,0.013671875,1093.524,32.6875,5.625,-45.0625
108,1103.553,-9.171875,-0.7578125,1.3125,1103.5729999999999,-1.568359375,-0.419921875,-0.013671875,1103.631,33.0625,4.9375,-46.5625
109,1113.484,-9.16796875,-0.69140625,1.2265625,1113.507,-1.36328125,-0.2734375,-0.021484375,1113.634,32.875,6.25,-44.5
110,1123.5059999999999,-9.31640625,-0.7578125,0.91796875,1123.6299999999999,-1.22265625,-0.1328125,-0.0078125,1123.798,32.3125,6.0,-44.375
111,1133.623,-9.390625,-0.78515625,0.671875,1133.684,-1.12890625,-0.03125,-0.017578125,1133.81,32.875,6.0625,-44.5
112,1143.55,-9.3828125,-0.87109375,0.31640625,1143.555,-1.056640625,0.03515625,-0.0078125,1143.536,32.25,5.8125,-45.6875
113,1153.681,-9.37890625,-0.8125,-0.2109375,1150.926,-1.068359375,0.08984375,0.017578125,1153.49,33.0,6.0625,-45.875
114,1171.059,-9.3359375,-0.73828125,-0.3046875,1171.066,-1.203125,0.140625,0.052734375,1171.2350000000001,32.3125,6.25,-44.3125
115,1183.182,-9.49609375,-0.61328125,-0.6015625,1180.9689999999998,-1.27734375,0.169921875,0.021484375,1183.2069999999999,33.1875,6.9375,-42.5625
116,1193.113,-9.43359375,-0.671875,-0.6015625,1191.174,-1.3828125,0.193359375,0.03125,1193.2050000000002,32.8125,6.25,-43.8125
117,1203.09,-9.28515625,-0.765625,-0.56640625,1201.1119999999999,-1.466796875,0.1875,0.03125,1203.093,32.9375,6.5,-42.5
118,1212.914,-9.1640625,-0.8828125,-0.6328125,1211.002,-1.580078125,0.205078125,0.0390625,1212.81,32.25,7.1875,-40.9375
119,1221.43,-9.52734375,-0.9296875,-0.70703125,1221.136,-1.70703125,0.240234375,0.0625,1221.2620000000002,32.5,6.75,-40.375
120,1230.569,-9.42578125,-0.84375,-0.46875,1228.663,-1.779296875,0.26171875,0.0859375,1230.575,32.5,6.75,-40.375
121,1241.111,-9.41796875,-0.87109375,-0.35546875,1241.036,-1.78515625,0.25390625,0.107421875,1241.047,33.0,7.5625,-40.5
122,1250.923,-9.265625,-0.83203125,-0.27734375,1251.114,-1.6796875,0.189453125,0.11328125,1251.0829999999999,32.9375,7.1875,-39.875
123,1260.341,-9.40625,-0.73828125,-0.3828125,1258.461,-1.556640625,0.142578125,0.11328125,1260.351,32.3125,7.375,-38.9375
124,1273.45,-9.1796875,-0.82421875,-0.56640625,1273.4730000000002,-1.265625,-0.0546875,0.10546875,1273.795,32.625,7.0,-36.5625
125,1288.162,-9.25,-0.65234375,-0.7578125,1286.061,-1.16796875,-0.1796875,0.103515625,1288.222,32.4375,7.375,-39.6875
126,1301.182,-9.2421875,-0.5078125,-0.765625,1301.2030000000002,-1.181640625,-0.283203125,0.06640625,1301.435,32.375,8.0625,-38.9375
127,1311.031,-8.83203125,-0.4609375,-0.53515625,1311.138,-1.228515625,-0.2890625,0.041015625,1311.258,32.375,8.0625,-38.9375
128,1323.451,-8.73828125,-0.421875,-0.0859375,1323.458,-1.24609375,-0.228515625,-0.048828125,1323.626,32.4375,8.3125,-37.0625
129,1333.584,-8.78515625,-0.48828125,0.15234375,1330.851,-1.23046875,-0.15625,-0.09765625,1333.593,32.375,8.0625,-36.4375
130,1343.368,-8.7734375,-0.515625,0.10546875,1340.9660000000001,-1.212890625,-0.0703125,-0.15625,1343.376,31.875,8.0625,-36.9375
131,1353.412,-8.9296875,-0.48828125,0.0390625,1351.1629999999998,-1.21484375,0.044921875,-0.228515625,1353.2839999999999,32.25,7.875,-35.6875
132,1363.126,-8.875,-0.5078125,-0.0859375,1360.992,-1.212890625,0.15625,-0.267578125,1363.218,31.8125,7.625,-36.3125
133,1373.077,-9.16796875,-0.3828125,-0.39453125,1371.17,-1.185546875,0.208984375,-0.3359375,1373.081,32.3125,8.6875,-35.6875
134,1382.886,-9.0,-0.40234375,-0.48828125,1381.187,-1.16796875,0.19921875,-0.361328125,1382.978,31.75,8.0625,-35.5625
135,1392.8780000000002,-8.96875,-0.57421875,-0.765625,1391.2089999999998,-1.14453125,0.181640625,-0.41796875,1392.791,31.3125,8.75,-33.4375
136,1400.869,-8.9921875,-0.61328125,-0.8828125,1398.527,-1.17578125,0.166015625,-0.443359375,1400.9450000000002,31.6875,8.6875,-34.875
137,1411.06,-9.05078125,-0.640625,-0.9375,1411.0819999999999,-1.298828125,0.1640625,-0.447265625,1410.951,31.8125,9.1875,-33.5625
138,1421.083,-9.15625,-0.7265625,-0.8125,1421.017,-1.396484375,0.1875,-0.458984375,1421.14,31.375,9.4375,-31.4375
139,1431.1370000000002,-9.2265625,-0.8046875,-0.74609375,1431.1529999999998,-1.49609375,0.24609375,-0.48046875,1431.065,31.5625,9.8125,-33.4375
140,1446.167,-9.08203125,-0.9765625,-0.640625,1446.087,-1.5546875,0.353515625,-0.517578125,1446.0610000000001,31.625,10.0625,-31.5
141,1458.266,-9.05078125,-0.95703125,-0.640625,1456.076,-1.59375,0.41015625,-0.515625,1458.2740000000001,31.3125,9.625,-30.8125
142,1466.156,-9.23046875,-1.03515625,-0.6328125,1466.077,-1.62890625,0.419921875,-0.50390625,1466.1329999999998,31.375,10.0625,-28.8125
143,1470.985,-9.29296875,-1.1484375,-0.71875,1471.129,-1.642578125,0.416015625,-0.470703125,1470.99,29.875,10.25,-28.4375
144,1483.4830000000002,-9.2421875,-1.42578125,-0.7265625,1483.4879999999998,-1.626953125,0.421875,-0.455078125,1483.5929999999998,30.8125,10.6875,-30.0
145,1491.278,-9.33984375,-1.5703125,-0.765625,1490.999,-1.5859375,0.3359375,-0.412109375,1490.983,30.5625,10.9375,-27.9375
146,1501.139,-9.55859375,-1.6484375,-0.84375,1501.048,-1.55859375,0.298828125,-0.37890625,1501.139,30.5625,10.9375,-27.9375
147,1513.5749999999998,-9.94140625,-1.63671875,-0.82421875,1513.436,-1.474609375,0.177734375,-0.2734375,1513.6490000000001,30.5,10.75,-25.1875
148,1523.702,-9.77734375,-1.68359375,-0.82421875,1520.953,-1.412109375,0.083984375,-0.232421875,1523.51,30.0625,10.9375,-25.0625
149,1533.563,-9.6484375,-1.66796875,-0.86328125,1531.002,-1.388671875,0.060546875,-0.103515625,1533.3719999999998,30.375,11.375,-25.875
150,1543.3429999999998,-9.5859375,-1.58984375,-0.94921875,1541.117,-1.404296875,0.02734375,0.025390625,1543.367,30.0625,11.625,-25.0625
151,1561.0919999999999,-9.3828125,-1.00390625,-0.84375,1561.1,-1.58203125,0.111328125,0.255859375,1561.278,31.0,11.4375,-24.6875
152,1571.044,-9.08203125,-0.5546875,-0.765625,1568.647,-1.654296875,0.107421875,0.294921875,1570.972,30.0,11.4375,-21.8125
153,1582.8990000000001,-9.14453125,-0.49609375,-0.74609375,1581.149,-1.73828125,0.197265625,0.283203125,1582.904,29.8125,11.25,-20.4375
154,1592.794,-9.0859375,-0.8984375,-0.7578125,1591.183,-1.78515625,0.265625,0.236328125,1592.801,30.0,11.6875,-19.8125
155,1601.167,-9.22265625,-1.2734375,-0.77734375,1601.085,-1.751953125,0.283203125,0.21875,1601.153,30.5625,11.5,-20.625
156,1610.58,-9.34765625,-1.54296875,-0.91015625,1608.644,-1.673828125,0.251953125,0.21875,1610.585,30.5625,11.5,-20.625
157,1622.467,-9.421875,-1.58203125,-1.07421875,1621.27,-1.517578125,0.130859375,0.240234375,1622.473,29.625,11.5,-18.375
158,1631.1109999999999,-9.42578125,-1.484375,-1.1484375,1631.086,-1.357421875,-0.044921875,0.283203125,1631.172,31.25,11.5,-19.375
159,1642.304,-9.64453125,-1.1015625,-1.015625,1641.231,-1.17578125,-0.1875,0.291015625,1642.312,29.5,10.6875,-17.0
160,1653.558,-9.16015625,-0.99609375,-0.7265625,1653.564,-1.00390625,-0.27734375,0.31640625,1653.702,30.1875,10.625,-19.1875
161,1663.718,-9.25,-0.8125,-0.53515625,1663.644,-0.888671875,-0.26171875,0.2890625,1663.703,29.6875,10.4375,-17.0625
162,1673.579,-9.09765625,-0.73828125,-0.46875,1673.584,-0.77734375,-0.208984375,0.255859375,1673.5059999999999,30.5625,11.0625,-18.0
163,1685.792,-9.0390625,-0.74609375,-0.71875,1683.67,-0.677734375,-0.173828125,0.23046875,1685.861,29.9375,11.0625,-16.5
164,1695.684,-9.1328125,-0.6796875,-0.765625,1693.807,-0.62109375,-0.134765625,0.205078125,1695.6899999999998,30.1875,10.875,-16.5625
165,1703.4830000000002,-9.3046875,-0.71875,-0.8125,1701.267,-0.59375,-0.09765625,0.1875,1703.6100000000001,30.375,10.5,-16.0
166,1711.124,-9.21484375,-0.69140625,-0.765625,1711.132,-0.5546875,-0.060546875,0.181640625,1711.041,30.375,10.5,-16.0
167,1723.31,-9.5234375,-0.61328125,-0.8984375,1721.087,-0.529296875,-0.01171875,0.162109375,1723.382,29.625,10.6875,-16.4375
168,1733.208,-9.44140625,-0.546875,-0.95703125,1730.976,-0.494140625,-0.015625,0.16796875,1733.318,30.625,10.5,-16.0625
169,1743.125,-9.5234375,-0.62109375,-1.03515625,1741.174,-0.4375,-0.029296875,0.21875,1743.039,30.125,10.25,-16.5625
170,1752.8999999999999,-9.42578125,-0.52734375,-1.140625,1751.23,-0.412109375,-0.064453125,0.279296875,1753.012,29.75,10.5,-15.125
171,1762.84,-9.38671875,-0.32421875,-1.109375,1761.0539999999999,-0.392578125,-0.111328125,0.3203125,1762.935,30.25,10.25,-15.25
172,1772.8919999999998,-9.296875,-0.21875,-1.0234375,1771.103,-0.37109375,-0.146484375,0.291015625,1772.699,29.5625,10.5,-15.0625
173,1782.888,-9.265625,-0.01953125,-0.91796875,1780.998,-0.322265625,-0.154296875,0.267578125,1782.797,30.4375,9.8125,-16.6875
174,1791.129,-9.1796875,0.125,-0.91796875,1791.152,-0.26953125,-0.1640625,0.220703125,1791.161,29.6875,9.8125,-16.5
175,1802.711,-9.046875,0.0859375,-0.84375,1801.115,-0.2421875,-0.1875,0.169921875,1802.7169999999999,29.8125,10.0625,-15.875
176,1811.045,-9.0390625,0.09765625,-0.9375,1811.235,-0.22265625,-0.173828125,0.146484375,1811.143,30.0625,9.625,-15.9375
177,1821.1109999999999,-8.828125,-0.02734375,-0.95703125,1821.286,-0.216796875,-0.189453125,0.1171875,1821.172,30.8125,9.8125,-15.375
178,1830.2959999999998,-8.87890625,-0.10546875,-0.83203125,1828.628,-0.20703125,-0.212890625,0.087890625,1830.305,29.9375,9.625,-17.1875
179,1843.593,-9.01171875,0.10546875,-0.96875,1843.6,-0.3359375,-0.130859375,0.005859375,1843.7060000000001,29.625,9.8125,-15.8125
180,1851.222,-8.7421875,0.125,-1.015625,1851.134,-0.44140625,-0.12109375,-0.05078125,1851.229,30.9375,9.8125,-16.8125
181,1865.8220000000001,-8.9921875,0.171875,-0.8125,1863.588,-0.498046875,-0.07421875,-0.115234375,1865.827,30.1875,9.625,-17.25
182,1873.798,-8.984375,0.14453125,-0.74609375,1873.705,-0.521484375,-0.095703125,-0.171875,1873.6299999999999,29.9375,10.0,-17.1875
183,1883.534,-9.21875,0.0,-0.74609375,1883.6409999999998,-0.498046875,-0.0625,-0.220703125,1883.699,30.1875,9.375,-17.25
184,1893.579,-9.28515625,-0.2578125,-0.7265625,1891.019,-0.4921875,-0.01953125,-0.23046875,1893.588,30.375,9.875,-16.0
185,1903.623,-9.296875,-0.49609375,-0.73828125,1901.04,-0.48046875,0.01953125,-0.21484375,1903.431,31.1875,10.25,-16.8125
186,1913.308,-9.19921875,-0.71875,-0.70703125,1911.298,-0.455078125,0.009765625,-0.1953125,1913.381,29.8125,9.625,-15.875
187,1923.2050000000002,-9.21484375,-0.87109375,-0.671875,1921.174,-0.4609375,0.04296875,-0.173828125,1923.316,29.5,10.0625,-15.0625
188,1933.208,-9.0859375,-0.8984375,-0.62109375,1931.1640000000002,-0.466796875,0.111328125,-0.123046875,1933.104,29.6875,9.4375,-14.5
189,1943.049,-9.23046875,-0.73828125,-0.66015625,1941.182,-0.396484375,0.107421875,-0.076171875,1943.16,29.0,10.0,-14.9375
190,1952.943,-9.0,-0.83203125,-0.640625,1951.077,-0.24609375,-0.013671875,-0.0546875,1953.0559999999998,30.0,10.25,-15.1875
191,1962.8419999999999,-9.2578125,-0.91796875,-0.74609375,1961.1190000000001,-0.111328125,-0.07421875,-0.072265625,1962.8509999999999,30.0,10.3125,-12.5625
192,1971.0449999999998,-9.41796875,-0.8984375,-0.9296875,1971.16,-0.037109375,-0.091796875,-0.041015625,1970.987,30.125,10.0625,-13.875
193,1981.1970000000001,-9.4765625,-0.96875,-1.16796875,1981.116,-0.0625,-0.08984375,0.025390625,1981.131,30.3125,10.5,-15.25
194,1991.283,-9.6015625,-0.8125,-1.53125,1991.122,-0.201171875,-0.05078125,0.09375,1991.232,30.25,10.0625,-15.25
195,2001.2150000000001,-9.98046875,-0.515625,-1.703125,2001.22,-0.4453125,0.052734375,0.185546875,2001.1290000000001,30.0,10.25,-15.1875
196,2011.1940000000002,-10.1171875,-0.18359375,-1.80859375,2011.169,-0.75390625,0.197265625,0.310546875,2011.196,30.25,10.5,-14.625
197,2023.723,-9.76171875,-0.1328125,-1.84765625,2023.5400000000002,-1.05078125,0.265625,0.388671875,2023.589,29.375,10.25,-13.6875
198,2033.726,-9.4375,-0.31640625,-1.78125,2033.65,-1.228515625,0.240234375,0.421875,2033.621,29.8125,9.6875,-13.1875
199,2043.5629999999999,-9.23046875,-0.48828125,-1.33203125,2043.4869999999999,-1.345703125,0.201171875,0.451171875,2043.8489999999997,30.625,10.0625,-13.375
200,2053.6400000000003,-9.16796875,-0.62109375,-1.16796875,2053.5640000000003,-1.390625,0.126953125,0.453125,2053.734,29.3125,9.5,-11.0625
201,2065.73,-9.00390625,-0.71875,-0.8984375,2063.788,-1.3828125,0.0625,0.4375,2065.753,30.0,9.25,-12.625
202,2077.751,-8.95703125,-0.44921875,-0.82421875,2076.1549999999997,-1.359375,0.001953125,0.400390625,2077.554,30.875,9.0,-14.125
203,2083.635,-8.7890625,-0.36328125,-0.87109375,2083.7439999999997,-1.33984375,-0.01171875,0.341796875,2083.571,30.125,8.8125,-11.3125
204,2091.116,-8.7734375,-0.31640625,-1.015625,2091.17,-1.333984375,-0.005859375,0.28515625,2091.222,30.1875,9.5,-9.3125
205,2101.317,-8.79296875,-0.3828125,-1.2734375,2100.978,-1.404296875,0.009765625,0.19140625,2101.027,30.375,9.5,-11.375
206,2113.241,-9.1796875,-0.59375,-1.9140625,2111.1369999999997,-1.5390625,0.08203125,0.142578125,2113.2439999999997,29.9375,9.0625,-9.9375
207,2123.062,-9.61328125,-0.6796875,-2.14453125,2121.319,-1.763671875,0.12890625,0.126953125,2122.973,29.0625,9.25,-10.375
208,2131.224,-9.71875,-0.59375,-2.078125,2128.79,-1.962890625,0.150390625,0.15625,2131.03,29.0625,9.25,-10.375
209,2140.934,-9.60546875,-0.36328125,-1.609375,2138.7019999999998,-2.2109375,0.197265625,0.240234375,2141.01,29.25,8.5,-7.75
210,2150.93,-9.37890625,0.0390625,-1.0625,2148.653,-2.341796875,0.234375,0.255859375,2150.936,30.0,8.6875,-7.9375
211,2162.658,-8.88671875,0.6328125,-0.6328125,2161.061,-2.322265625,0.2421875,0.22265625,2162.666,29.9375,8.4375,-9.9375
212,2171.253,-8.48046875,0.95703125,0.0,2171.4449999999997,-2.19140625,0.2578125,0.119140625,2171.267,29.625,8.25,-6.625
213,2186.216,-8.33984375,1.25390625,0.56640625,2186.137,-1.861328125,0.333984375,-0.126953125,2186.152,29.8125,8.5,-5.9375
214,2196.247,-8.70703125,1.20703125,0.5546875,2196.147,-1.5859375,0.404296875,-0.27734375,2196.1349999999998,29.3125,8.3125,-3.8125
215,2203.6440000000002,-8.90234375,1.015625,0.4296875,2203.468,-1.357421875,0.42578125,-0.35546875,2203.695,29.75,7.875,-5.3125
216,2213.694,-9.0859375,0.77734375,-0.0859375,2213.618,-1.064453125,0.439453125,-0.447265625,2213.849,29.125,8.375,-1.8125
217,2221.26,-9.26171875,0.515625,-0.4296875,2221.1910000000003,-0.91796875,0.462890625,-0.4609375,2221.266,28.75,7.875,-3.0625
218,2235.742,-9.171875,-0.21875,-0.8125,2233.5609999999997,-0.810546875,0.546875,-0.458984375,2235.748,29.1875,8.125,-2.5625
219,2243.628,-9.33984375,-0.39453125,-1.08984375,2243.7529999999997,-0.830078125,0.62109375,-0.419921875,2243.921,27.875,7.6875,-1.5
220,2253.628,-9.51171875,-0.34375,-1.30078125,2253.6360000000004,-0.888671875,0.681640625,-0.330078125,2253.561,28.75,8.125,-0.4375
221,2263.733,-9.453125,0.0859375,-1.55078125,2260.987,-0.892578125,0.6875,-0.279296875,2263.737,28.5625,7.75,0.9375
222,2273.4770000000003,-9.33203125,0.4296875,-1.484375,2271.064,-0.93359375,0.6640625,-0.24609375,2273.483,28.5,7.75,1.5625
223,2283.4900000000002,-9.03125,0.62109375,-1.3515625,2281.163,-0.92578125,0.666015625,-0.220703125,2283.495,28.75,8.375,-0.4375
224,2293.366,-8.9453125,0.82421875,-1.54296875,2291.152,-0.884765625,0.611328125,-0.24609375,2293.371,28.125,7.9375,3.0
225,2301.286,-9.04296875,0.7578125,-1.63671875,2298.6490000000003,-0.8046875,0.548828125,-0.275390625,2301.092,28.125,7.9375,3.0
226,2313.054,-9.1640625,0.57421875,-2.09765625,2311.3160000000003,-0.666015625,0.3359375,-0.314453125,2313.1659999999997,28.0625,8.0,3.75
227,2321.224,-9.14453125,0.40234375,-2.30859375,2321.247,-0.607421875,0.189453125,-0.341796875,2321.116,27.375,8.625,3.25
228,2336.267,-8.65625,-0.046875,-2.453125,2336.192,-0.69140625,0.0390625,-0.361328125,2336.102,27.5625,7.9375,3.75
229,2348.674,-9.015625,-0.26953125,-2.6328125,2346.271,-0.802734375,0.013671875,-0.40625,2348.709,27.375,8.625,3.25
230,2356.128,-9.08203125,-0.23046875,-2.73828125,2356.149,-0.998046875,0.029296875,-0.412109375,2356.274,27.5625,8.1875,3.875
231,2362.504,-9.04296875,-0.078125,-3.046875,2361.323,-1.109375,0.009765625,-0.412109375,2362.507,27.125,8.1875,6.0
232,2370.42,-8.97265625,-0.0390625,-2.8046875,2368.8349999999996,-1.2734375,0.03515625,-0.43359375,2370.4269999999997,26.6875,8.6875,7.375
233,2383.857,-8.8828125,0.0078125,-2.2109375,2383.6659999999997,-1.501953125,0.02734375,-0.447265625,2383.7709999999997,27.5625,8.4375,5.875
234,2391.5519999999997,-8.75390625,-0.0078125,-1.63671875,2391.31,-1.51171875,0.0078125,-0.4609375,2391.3540000000003,26.625,8.4375,8.125
235,2403.75,-8.9453125,-0.18359375,-0.82421875,2403.674,-1.30078125,-0.0625,-0.4921875,2403.993,27.125,8.875,6.0
236,2413.6440000000002,-9.21875,0.1328125,-0.74609375,2413.6510000000003,-1.015625,-0.138671875,-0.484375,2413.62,27.5625,7.8125,5.875
237,2421.188,-9.2421875,0.44140625,-0.7578125,2421.123,-0.82421875,-0.181640625,-0.53125,2421.194,26.375,9.125,8.1875
238,2431.2740000000003,-9.07421875,0.2890625,-0.9765625,2431.2079999999996,-0.68359375,-0.181640625,-0.572265625,2431.176,26.875,8.25,8.0
239,2441.164,-8.6875,-0.09765625,-1.41796875,2441.169,-0.697265625,-0.08203125,-0.646484375,2441.366,26.875,8.25,8.0
240,2453.5049999999997,-9.04296875,-0.44921875,-2.0703125,2451.039,-0.796875,0.05078125,-0.681640625,2453.5110000000004,26.6875,8.6875,7.375
241,2463.397,-9.2421875,-0.61328125,-2.61328125,2461.201,-0.93359375,0.076171875,-0.689453125,2463.402,26.25,9.3125,9.5
242,2473.359,-9.2578125,-0.6328125,-3.2734375,2471.3650000000002,-1.123046875,0.07421875,-0.669921875,2473.365,26.125,8.875,8.25
243,2483.27,-9.0078125,-0.59375,-2.8828125,2481.271,-1.37109375,0.037109375,-0.673828125,2483.077,26.0625,9.125,8.875
244,2496.2270000000003,-9.0078125,-0.32421875,-2.625,2496.178,-1.64453125,0.021484375,-0.70703125,2496.2110000000002,26.875,8.875,8.6875
245,2510.904,-8.984375,-0.32421875,-2.01171875,2508.651,-1.794921875,-0.013671875,-0.7734375,2510.709,26.3125,9.125,8.8125
246,2520.8210000000004,-9.171875,-0.34375,-2.2109375,2518.868,-1.880859375,0.02734375,-0.82421875,2520.934,26.125,9.125,10.875
247,2531.226,-9.546875,-0.3828125,-2.82421875,2531.1620000000003,-1.947265625,-0.083984375,-0.849609375,2531.17,26.1875,9.125,10.25
248,2543.672,-8.61328125,-0.27734375,-2.94921875,2543.781,-2.201171875,-0.048828125,-0.986328125,2544.087,25.5,9.75,9.6875
249,2553.67,-7.58984375,-0.4296875,-2.99609375,2553.675,-2.578125,-0.232421875,-0.947265625,2553.8509999999997,26.375,9.3125,10.8125
250,2561.228,-7.85546875,-0.7578125,-2.19140625,2561.226,-2.689453125,-0.126953125,-1.048828125,2561.232,25.9375,9.3125,10.3125
251,2573.73,-8.50390625,-1.25390625,-1.1953125,2573.6279999999997,-2.5546875,-0.212890625,-1.16015625,2573.614,24.6875,8.9375,12.5625
252,2586.056,-9.3515625,-1.76171875,-0.78515625,2583.597,-2.31640625,-0.259765625,-1.166015625,2586.062,25.125,8.5,13.0625
253,2596.07,-10.2265625,-1.953125,-0.74609375,2593.746,-2.072265625,-0.189453125,-1.072265625,2596.2000000000003,24.125,8.9375,15.9375
254,2603.7870000000003,-10.01953125,-2.05859375,-1.109375,2603.548,-1.85546875,-0.01171875,-0.916015625,2603.674,24.625,9.125,15.8125
255,2613.78,-10.60546875,-2.47265625,-1.21484375,2613.7019999999998,-1.673828125,-0.26171875,-0.7578125,2613.764,25.5,8.75,14.375
256,2621.2870000000003,-10.26953125,-2.44140625,-0.640625,2621.147,-1.517578125,-0.310546875,-0.57421875,2621.251,24.875,9.1875,15.75
257,2633.622,-9.703125,-2.203125,0.14453125,2631.337,-1.20703125,-0.318359375,-0.36328125,2633.749,23.4375,9.1875,18.125
258,2643.487,-9.9375,-1.87890625,0.18359375,2641.205,-0.833984375,-0.333984375,-0.23828125,2643.4950000000003,24.25,8.5625,17.25
259,2653.5679999999998,-9.94921875,-1.703125,-0.046875,2651.163,-0.4453125,-0.443359375,-0.125,2653.374,24.3125,9.1875,16.625
260,2663.351,-9.77734375,-1.59765625,-0.39453125,2661.14,-0.107421875,-0.482421875,-0.013671875,2663.3559999999998,24.5625,8.3125,16.5625
261,2671.2509999999997,-9.609375,-1.59765625,-0.6015625,2668.8849999999998,0.099609375,-0.5,0.05859375,2671.256,24.5625,8.3125,16.5625
262,2683.067,-9.203125,-1.6484375,-0.765625,2681.3129999999996,0.29296875,-0.537109375,0.16015625,2683.179,24.625,8.8125,18.5625
263,2691.019,-9.3515625,-1.68359375,-0.87109375,2688.798,0.337890625,-0.541015625,0.21875,2691.094,24.75,8.5,14.5
264,2700.8999999999996,-9.578125,-1.65625,-1.0546875,2698.768,0.34765625,-0.5,0.302734375,2700.9089999999997,24.5,8.0625,14.5625
265,2712.8709999999996,-9.46875,-1.53125,-1.21484375,2711.096,0.373046875,-0.474609375,0.40625,2712.781,25.625,9.1875,13.0
266,2721.1850000000004,-9.015625,-1.4921875,-1.3125,2721.219,0.34765625,-0.494140625,0.439453125,2721.144,24.9375,8.6875,12.5
267,2731.304,-8.984375,-1.29296875,-1.4765625,2731.279,0.2578125,-0.41796875,0.455078125,2731.364,24.875,8.5,13.125
268,2743.7290000000003,-9.07421875,-1.37890625,-1.58984375,2743.741,0.064453125,-0.33203125,0.470703125,2743.849,26.75,8.75,12.0625
269,2751.403,-8.96484375,-1.4453125,-1.54296875,2751.192,-0.064453125,-0.29296875,0.466796875,2751.338,25.6875,8.25,12.3125
270,2763.638,-9.03125,-1.50390625,-1.1953125,2763.692,-0.24609375,-0.18359375,0.466796875,2763.732,25.25,8.5,12.4375
271,2773.734,-8.8984375,-1.4921875,-1.0546875,2773.758,-0.30078125,-0.107421875,0.494140625,2773.728,25.5,8.5,12.375
272,2783.689,-9.19921875,-1.24609375,-0.77734375,2783.811,-0.279296875,-0.10546875,0.5078125,2784.136,26.5625,8.0,8.75
273,2793.7349999999997,-9.21875,-0.8828125,-0.7265625,2793.639,-0.22265625,-0.0546875,0.38671875,2793.8109999999997,25.375,8.25,11.0
274,2803.781,-9.72265625,-0.70703125,-0.7578125,2803.704,-0.18359375,-0.056640625,0.361328125,2803.759,25.8125,7.4375,10.875
275,2813.6009999999997,-8.8828125,-0.59375,-0.52734375,2811.2529999999997,-0.1328125,-0.046875,0.392578125,2813.607,26.3125,7.875,11.375
276,2831.269,-8.83203125,-0.296875,-0.69921875,2831.274,-0.06640625,0.095703125,0.328125,2831.3160000000003,25.5,8.0625,12.3125
277,2843.4249999999997,-9.0078125,-0.41015625,-1.0625,2841.217,-0.068359375,0.13671875,0.22265625,2843.2309999999998,26.1875,7.4375,12.125
278,2853.16,-9.0390625,-0.73828125,-1.484375,2851.2219999999998,-0.119140625,0.1875,0.146484375,2853.272,25.6875,7.4375,12.25
279,2861.087,-8.859375,-1.015625,-1.7421875,2858.758,-0.19921875,0.1953125,0.107421875,2861.156,26.125,6.625,12.75
280,2870.996,-9.09765625,-1.265625,-1.84765625,2868.748,-0.32421875,0.185546875,0.09765625,2870.9190000000003,26.0,7.4375,11.4375
281,2880.779,-9.1171875,-1.12890625,-1.63671875,2878.775,-0.4375,0.15625,0.15625,2880.875,26.125,6.5625,10.125
282,2890.7980000000002,-9.46875,-0.70703125,-1.40625,2888.7459999999996,-0.525390625,0.197265625,0.181640625,2890.8010000000004,26.0,6.4375,14.125
283,2901.282,-9.3515625,-0.3046875,-1.1484375,2901.216,-0.546875,0.158203125,0.244140625,2901.2259999999997,25.4375,7.0,14.25
284,2911.347,-9.73828125,0.02734375,-1.04296875,2911.536,-0.541015625,0.158203125,0.21875,2911.2650000000003,25.9375,6.375,12.125
285,2921.325,-9.0390625,0.0390625,-0.8984375,2921.299,-0.498046875,0.150390625,0.19921875,2921.358,25.375,7.25,12.9375
286,2930.54,-8.6953125,-0.0078125,-1.015625,2928.996,-0.48046875,0.130859375,0.13671875,2930.449,26.9375,6.375,11.875
287,2941.376,-9.01953125,-0.02734375,-1.28515625,2941.375,-0.498046875,0.166015625,0.0625,2941.182,26.0625,7.0,13.5
288,2956.103,-9.109375,-0.2890625,-2.0,2953.739,-0.60546875,0.220703125,0.0234375,2956.112,26.3125,7.0,13.4375
289,2960.2889999999998,-9.0546875,-0.39453125,-1.93359375,2960.2940000000003,-0.666015625,0.201171875,-0.015625,2960.301,26.3125,7.0,13.4375
290,2973.723,-9.33984375,-0.5546875,-2.05859375,2973.643,-0.810546875,0.1328125,0.02734375,2973.8289999999997,25.1875,6.875,14.9375
291,2983.629,-9.23046875,-0.48046875,-1.9921875,2983.752,-0.86328125,0.033203125,0.08203125,2983.8070000000002,25.375,6.0,14.875
292,2993.6189999999997,-8.875,-0.14453125,-1.78125,2991.251,-0.876953125,-0.04296875,0.123046875,2993.625,25.375,6.1875,14.875
293,3003.42,-9.04296875,0.46875,-1.9140625,3001.353,-0.927734375,-0.048828125,0.095703125,3003.6459999999997,25.625,6.1875,14.8125
294,3013.462,-8.5234375,0.39453125,-1.7734375,3011.243,-0.978515625,-0.236328125,0.064453125,3013.434,25.75,5.3125,13.5
295,3023.288,-8.203125,0.39453125,-1.37109375,3021.252,-0.962890625,-0.3671875,-0.015625,3023.359,25.625,5.9375,12.1875
296,3031.252,-9.09375,0.2890625,-1.5625,3031.206,-0.93359375,-0.390625,-0.20703125,3031.358,26.4375,5.3125,12.0
297,3041.285,-9.16015625,0.01953125,-1.37890625,3038.6220000000003,-0.90625,-0.447265625,-0.2109375,3041.29,26.4375,5.3125,12.0
298,3053.217,-8.96875,-0.3828125,-1.1796875,3051.342,-0.9140625,-0.400390625,-0.25,3053.128,26.3125,5.375,15.3125
299,3061.01,-8.875,-0.6328125,-1.1796875,3058.811,-0.939453125,-0.369140625,-0.26171875,3061.0879999999997,26.1875,5.5625,12.0625
300,3071.2830000000004,-9.56640625,-0.6328125,-1.21484375,3071.316,-0.96484375,-0.271484375,-0.22265625,3071.284,26.125,5.3125,12.6875
301,3080.821,-10.07421875,-0.46875,-1.1953125,3078.824,-0.9921875,-0.236328125,-0.169921875,3080.829,25.625,5.125,14.75
302,3091.225,-9.890625,-0.35546875,-1.109375,3091.203,-1.099609375,-0.140625,-0.09765625,3091.2329999999997,25.6875,5.5625,14.125
303,3106.226,-9.24609375,-0.4296875,-0.66015625,3106.1510000000003,-1.23046875,-0.013671875,-0.1015625,3106.52,25.75,4.875,13.5
304,3116.278,-9.5078125,-0.65234375,-0.05859375,3116.299,-1.1875,0.09765625,-0.09765625,3116.385,25.6875,5.625,16.75
305,3123.771,-9.1953125,-0.74609375,-0.1328125,3123.797,-1.125,0.234375,-0.056640625,3123.8559999999998,25.4375,4.9375,16.8125
306,3133.735,-9.703125,-0.5859375,-0.21875,3133.6560000000004,-0.943359375,0.216796875,-0.029296875,3133.727,26.5,5.125,13.9375
307,3143.7400000000002,-10.01171875,-0.35546875,-0.57421875,3143.748,-0.7265625,0.15234375,-0.0390625,3143.917,25.75,4.875,13.5
308,3151.569,-9.5859375,-0.4609375,-0.8828125,3151.192,-0.658203125,0.19921875,-0.076171875,3151.279,25.625,4.9375,14.75
309,3161.39,-9.1328125,-0.62109375,-1.5234375,3161.395,-0.71875,0.251953125,-0.08203125,3161.304,25.625,4.9375,14.75
310,3173.786,-8.4453125,-0.66015625,-1.9140625,3171.433,-0.869140625,0.27734375,-0.099609375,3173.794,25.5,4.5625,16.125
311,3183.6760000000004,-8.58984375,-0.44921875,-2.09765625,3181.309,-1.033203125,0.263671875,-0.177734375,3183.6820000000002,25.6875,4.5,14.125
312,3193.53,-8.9921875,-0.34375,-2.0390625,3191.19,-1.12109375,0.171875,-0.248046875,3193.655,25.1875,4.3125,16.1875
313,3203.426,-9.26953125,-0.3046875,-2.05859375,3201.241,-1.1796875,0.07421875,-0.30078125,3203.499,26.0,4.125,16.0
314,3213.395,-9.3125,-0.3828125,-2.0703125,3211.3740000000003,-1.275390625,0.056640625,-0.291015625,3213.416,25.125,4.3125,16.8125
315,3221.183,-9.15625,-0.3828125,-1.98046875,3218.8340000000003,-1.365234375,0.03125,-0.263671875,3221.294,24.625,3.875,16.9375
316,3231.1899999999996,-9.0,-0.44921875,-1.71484375,3228.726,-1.498046875,0.025390625,-0.23828125,3230.996,24.625,3.875,16.9375
317,3243.0310000000004,-8.81640625,-0.515625,-1.3203125,3241.3219999999997,-1.615234375,0.091796875,-0.203125,3243.0370000000003,25.5625,4.3125,17.4375
318,3251.182,-8.92578125,-0.5546875,-1.3203125,3251.298,-1.638671875,0.111328125,-0.265625,3251.368,25.5,3.75,18.0625
319,3260.36,-9.15625,-0.57421875,-1.140625,3258.774,-1.58203125,0.0703125,-0.28125,3260.3689999999997,25.5,3.75,18.0625
320,3278.714,-9.22265625,-0.70703125,-2.05078125,3276.2540000000004,-1.388671875,0.013671875,-0.24609375,3278.719,24.6875,3.875,18.9375
321,3286.217,-9.25,-0.83203125,-2.17578125,3286.221,-1.396484375,-0.078125,-0.251953125,3286.393,25.5,3.5,18.0625
322,3290.517,-9.38671875,-0.8828125,-2.078125,3288.891,-1.396484375,-0.09375,-0.236328125,3290.323,25.4375,3.5,18.6875
323,3303.885,-9.19921875,-1.08984375,-1.9921875,3303.693,-1.578125,-0.095703125,-0.134765625,3303.7999999999997,25.125,3.875,16.8125
324,3311.3540000000003,-9.1640625,-0.9375,-1.8203125,3311.362,-1.66796875,-0.095703125,-0.11328125,3311.36,25.125,2.8125,16.75
325,3323.769,-8.8671875,-0.79296875,-1.33984375,3323.795,-1.779296875,-0.072265625,-0.07421875,3323.705,24.625,2.8125,17.0
326,3333.857,-8.8984375,-0.6015625,-1.0546875,3333.779,-1.81640625,-0.046875,-0.091796875,3334.1440000000002,24.5,2.8125,18.3125
327,3343.743,-8.80078125,-0.46875,-0.77734375,3343.751,-1.82421875,0.00390625,-0.146484375,3343.765,24.6875,2.5,20.9375
328,3351.3,-8.73828125,-0.34375,-0.70703125,3351.2749999999996,-1.787109375,0.0390625,-0.169921875,3351.307,25.0625,2.0,19.4375
329,3361.393,-8.7734375,-0.3046875,-0.49609375,3361.3559999999998,-1.697265625,0.10546875,-0.25,3361.368,25.125,1.8125,18.6875
330,3373.642,-9.28515625,-0.52734375,-0.640625,3371.2580000000003,-1.57421875,0.16796875,-0.287109375,3373.6609999999996,24.4375,1.75,18.25
331,3385.491,-9.671875,-0.77734375,-0.8046875,3383.987,-1.39453125,0.177734375,-0.25390625,3385.4030000000002,25.3125,1.4375,19.375
332,3399.462,-9.80859375,-0.84375,-1.0546875,3398.931,-1.1796875,0.14453125,-0.1328125,3399.28,24.5625,1.375,19.5625
333,3403.892,-9.72265625,-0.87109375,-1.1796875,3403.882,-1.140625,0.111328125,-0.09375,3403.85,24.75,1.5625,20.125
334,3413.1969999999997,-9.37109375,-1.015625,-1.46484375,3411.4,-1.111328125,0.099609375,-0.03515625,3413.002,24.8125,1.625,22.125
335,3422.931,-9.15625,-1.1015625,-1.7734375,3421.434,-1.162109375,0.115234375,0.009765625,3423.027,24.6875,1.4375,20.875
336,3431.2019999999998,-9.26953125,-0.95703125,-1.953125,3431.3199999999997,-1.271484375,0.12890625,0.05859375,3431.188,24.125,0.375,21.0
337,3443.757,-9.71875,-0.57421875,-1.80078125,3443.863,-1.349609375,0.162109375,0.1328125,3444.07,24.625,0.125,20.875
338,3452.675,-9.45703125,-0.5546875,-1.76171875,3451.488,-1.3828125,0.158203125,0.193359375,3452.578,23.9375,0.75,23.0
339,3461.223,-9.42578125,-0.46875,-2.0390625,3461.2,-1.423828125,0.162109375,0.251953125,3461.232,24.8125,0.5625,21.4375
340,3470.558,-9.375,-0.4296875,-2.2890625,3469.0029999999997,-1.48046875,0.123046875,0.283203125,3470.565,23.75,0.5625,22.3125
341,3481.503,-9.328125,-0.26953125,-2.421875,3481.441,-1.609375,0.1015625,0.33203125,3481.31,24.8125,0.5625,21.4375
342,3493.7999999999997,-9.0546875,-0.14453125,-2.4140625,3493.808,-1.7734375,0.072265625,0.33984375,3493.914,24.125,-0.9375,20.9375
343,3503.9539999999997,-8.7734375,-0.18359375,-2.26953125,3503.654,-1.8828125,0.072265625,0.310546875,3503.7410000000004,23.9375,-0.5,23.0
344,3513.925,-8.7578125,-0.2109375,-2.078125,3513.886,-1.953125,0.04296875,0.265625,3513.814,24.5625,-0.75,19.5
345,3525.853,-9.046875,-0.21875,-1.6171875,3523.925,-1.94140625,-0.029296875,0.232421875,3525.922,24.25,-2.0,22.125
346,3531.502,-9.05859375,-0.14453125,-1.41796875,3531.456,-1.88671875,-0.109375,0.220703125,3531.424,24.4375,-1.9375,22.0625
347,3543.7439999999997,-8.66796875,-0.125,-1.03515625,3541.209,-1.724609375,-0.23046875,0.20703125,3543.8160000000003,24.3125,-2.4375,21.4375
348,3551.43,-8.60546875,-0.0078125,-0.94921875,3551.393,-1.537109375,-0.33203125,0.17578125,3551.406,24.5625,-2.8125,20.75
349,3563.698,-8.48828125,0.23046875,-0.82421875,3561.435,-1.3359375,-0.416015625,0.125,3563.702,25.5,-2.8125,19.125
350,3573.449,-8.63671875,0.3828125,-0.74609375,3571.375,-1.1328125,-0.486328125,0.037109375,3573.569,24.75,-2.625,21.3125
351,3583.335,-8.88671875,0.3828125,-0.69921875,3581.373,-0.953125,-0.548828125,-0.033203125,3583.358,24.6875,-2.6875,19.3125
352,3591.197,-8.90234375,0.39453125,-0.61328125,3588.85,-0.828125,-0.564453125,-0.08984375,3591.3089999999997,24.9375,-3.6875,19.25
353,3601.058,-8.84765625,0.2578125,-0.671875,3598.713,-0.677734375,-0.5703125,-0.142578125,3601.063,24.9375,-3.6875,19.25
354,3612.981,-8.91015625,0.1640625,-0.98828125,3611.43,-0.56640625,-0.578125,-0.185546875,3613.0930000000003,25.375,-4.125,17.75
355,3621.214,-9.03515625,0.21875,-1.41796875,3621.3289999999997,-0.58984375,-0.578125,-0.236328125,3621.169,26.125,-3.5,17.625
356,3636.404,-9.0,0.40234375,-1.953125,3636.226,-0.75,-0.603515625,-0.271484375,3636.297,26.3125,-3.75,13.5625
357,3646.4759999999997,-8.96875,0.44140625,-2.05078125,3646.435,-0.9375,-0.607421875,-0.328125,3646.365,25.1875,-3.75,17.1875
358,3658.507,-8.9453125,0.26953125,-1.62890625,3656.244,-1.11328125,-0.615234375,-0.39453125,3658.4,25.5625,-2.875,15.75
359,3664.062,-8.93359375,0.25,-1.45703125,3664.002,-1.22265625,-0.59765625,-0.427734375,3663.912,26.75,-3.3125,16.1875
360,3673.8590000000004,-9.1328125,0.0,-1.1015625,3673.883,-1.318359375,-0.576171875,-0.4375,3673.905,25.625,-3.5625,15.125
361,3683.876,-9.21875,-0.2578125,-1.12109375,3683.885,-1.427734375,-0.515625,-0.416015625,3684.053,26.25,-3.9375,16.3125
362,3691.3619999999996,-9.4140625,-0.41015625,-1.07421875,3691.494,-1.53125,-0.46875,-0.39453125,3691.367,26.75,-3.5625,13.4375
363,3703.904,-9.72265625,-0.53515625,-0.79296875,3703.826,-1.703125,-0.390625,-0.328125,3703.8869999999997,26.5,-3.5625,13.5625
364,3711.359,-9.8828125,-0.52734375,-0.70703125,3711.3540000000003,-1.763671875,-0.369140625,-0.263671875,3711.365,26.625,-3.375,12.25
365,3721.489,-9.89453125,-0.4609375,-0.0390625,3721.4939999999997,-1.767578125,-0.33203125,-0.193359375,3721.4900000000002,26.625,-3.375,12.25
366,3733.682,-9.67578125,-0.5078125,0.70703125,3731.2059999999997,-1.681640625,-0.251953125,-0.1484375,3733.6870000000004,26.75,-4.0,13.4375
367,3743.513,-9.66796875,-0.57421875,0.91796875,3741.2909999999997,-1.490234375,-0.197265625,-0.087890625,3743.52,27.4375,-4.1875,11.9375
368,3753.568,-9.88671875,-0.61328125,0.7265625,3751.362,-1.296875,-0.146484375,-0.048828125,3753.373,26.375,-4.4375,12.25
369,3769.1789999999996,-10.08984375,-0.69921875,0.27734375,3768.9210000000003,-1.09765625,-0.044921875,0.111328125,3769.11,26.4375,-5.125,9.5
370,3781.075,-9.7890625,-0.671875,-0.1328125,3778.9519999999998,-1.03515625,0.0390625,0.265625,3781.082,27.0,-4.625,10.75
371,3791.094,-9.54296875,-0.515625,-0.6015625,3788.845,-1.0078125,0.09375,0.373046875,3790.904,27.375,-4.4375,9.9375
372,3800.786,-9.328125,-0.46875,-0.890625,3798.868,-0.9921875,0.068359375,0.4453125,3800.881,27.0,-5.0625,10.75
373,3812.7749999999996,-9.55859375,-0.18359375,-1.2265625,3811.38,-1.0546875,-0.01953125,0.48046875,3812.778,27.375,-4.875,9.9375
374,3821.519,-9.49609375,-0.125,-1.2734375,3821.353,-1.1484375,-0.0859375,0.52734375,3821.4610000000002,26.75,-5.9375,10.75
375,3830.655,-9.078125,-0.02734375,-1.3203125,3829.005,-1.26953125,-0.091796875,0.546875,3830.464,27.6875,-6.1875,9.1875
376,3840.5499999999997,-8.75,0.05859375,-1.3984375,3838.905,-1.455078125,-0.0625,0.55859375,3840.355,26.9375,-6.3125,11.3125
377,3851.517,-8.83984375,0.23828125,-1.3203125,3851.457,-1.69921875,-0.02734375,0.51953125,3851.323,27.0625,-6.1875,9.9375
378,3860.578,-8.87109375,0.32421875,-0.96875,3860.683,-1.787109375,-0.07421875,0.466796875,3860.493,27.0625,-6.1875,9.9375
379,3873.918,-9.0546875,0.2890625,-0.40234375,3874.0420000000004,-1.74609375,-0.2109375,0.39453125,3873.853,27.375,-6.8125,9.1875
380,3883.813,-9.171875,0.171875,0.21875,3883.734,-1.546875,-0.30078125,0.375,3884.12,26.9375,-7.4375,8.6875
381,3895.892,-9.31640625,-0.05859375,0.19140625,3893.9469999999997,-1.330078125,-0.36328125,0.39453125,3895.96,26.75,-8.125,7.9375
382,3907.756,-9.140625,0.09765625,-0.11328125,3906.361,-1.166015625,-0.3671875,0.47265625,3907.759,27.0625,-7.875,7.25
383,3921.401,-9.24609375,0.14453125,-0.4609375,3921.4069999999997,-1.107421875,-0.3984375,0.515625,3921.379,27.3125,-7.875,7.1875
384,3933.458,-9.21875,0.40234375,-0.74609375,3931.436,-1.16796875,-0.453125,0.53515625,3933.37,28.0,-8.75,5.0
385,3943.4,-8.92578125,0.62109375,-0.74609375,3941.3689999999997,-1.259765625,-0.498046875,0.564453125,3943.311,27.375,-8.75,6.5
386,3953.239,-8.671875,0.78515625,-0.7265625,3951.491,-1.3125,-0.56640625,0.5703125,3953.152,27.125,-8.9375,5.8125
387,3961.353,-8.6171875,0.9375,-0.5859375,3958.92,-1.314453125,-0.623046875,0.564453125,3961.36,27.125,-8.9375,5.8125
388,3973.007,-8.4921875,1.33984375,-0.78515625,3971.429,-1.35546875,-0.712890625,0.52734375,3972.9199999999996,28.0625,-9.25,1.625
389,3981.023,-8.4375,1.54296875,-0.890625,3978.8160000000003,-1.439453125,-0.759765625,0.45703125,3981.03,27.625,-9.875,1.0625
390,3991.3940000000002,-8.03125,1.66796875,-0.74609375,3991.3280000000004,-1.740234375,-0.794921875,0.287109375,3991.3379999999997,27.875,-9.6875,1.0
391,4001.4770000000003,-8.5,1.5625,-0.6328125,4001.6670000000004,-2.005859375,-0.775390625,0.103515625,4001.4900000000002,27.9375,-10.5,0.25
392,4011.4330000000004,-8.53125,1.30078125,0.0078125,4011.4970000000003,-2.24609375,-0.732421875,-0.03125,4011.526,27.4375,-10.5625,0.4375
393,4026.363,-8.8203125,0.7265625,1.109375,4026.4689999999996,-2.333984375,-0.65625,-0.203125,4026.657,28.625,-11.375,-1.9375
394,4036.377,-9.18359375,0.515625,1.78125,4036.435,-2.19140625,-0.626953125,-0.232421875,4036.448,29.0625,-10.5625,-3.3125
395,4046.2309999999998,-9.33984375,0.515625,2.40234375,4043.8520000000003,-2.021484375,-0.580078125,-0.21875,4046.3430000000003,29.1875,-11.25,-7.3125
396,4053.9170000000004,-9.3515625,0.6015625,2.625,4053.8410000000003,-1.6953125,-0.556640625,-0.177734375,4053.853,29.75,-11.25,-8.1875
397,4063.763,-9.3359375,0.6328125,2.60546875,4063.771,-1.353515625,-0.521484375,-0.169921875,4063.9390000000003,29.3125,-11.25,-6.0625
398,4071.662,-9.26953125,0.70703125,2.18359375,4071.2599999999998,-1.169921875,-0.494140625,-0.1484375,4071.3679999999995,28.8125,-10.875,-8.5625
399,4083.876,-9.375,0.74609375,1.65625,4081.408,-1.009765625,-0.46875,-0.142578125,4083.9990000000003,29.125,-10.8125,-6.625
400,4093.922,-9.19921875,0.6328125,1.71484375,4091.449,-0.935546875,-0.435546875,-0.1015625,4093.731,29.3125,-11.3125,-11.3125
401,4103.658,-9.1953125,0.59375,1.6171875,4101.2519999999995,-0.841796875,-0.388671875,-0.091796875,4103.665999999999,29.5,-10.875,-10.0625
402,4113.547,-9.28125,0.671875,1.37109375,4111.335,-0.8203125,-0.341796875,-0.064453125,4113.553,29.75,-10.875,-10.125
403,4123.562,-9.29296875,0.671875,1.265625,4121.336,-0.8671875,-0.263671875,-0.052734375,4123.566000000001,30.3125,-11.25,-10.9375
404,4131.326,-9.25,0.640625,1.1953125,4128.878000000001,-0.96484375,-0.208984375,-0.0625,4131.454,30.125,-11.75,-12.25
405,4146.404,-9.1953125,0.6015625,1.609375,4146.376,-1.173828125,-0.009765625,-0.064453125,4146.343,30.0625,-10.6875,-10.8125
406,4159.117,-9.41796875,0.61328125,1.84765625,4158.865,-1.119140625,0.044921875,-0.060546875,4159.027,29.625,-11.5,-11.375
407,4170.903,-9.3515625,0.671875,1.859375,4168.85,-1.068359375,0.078125,-0.041015625,4171.012,30.4375,-11.125,-14.9375
408,4181.441000000001,-9.2421875,0.62109375,2.05078125,4181.5199999999995,-0.9375,0.10546875,-0.044921875,4181.552,30.4375,-10.875,-12.3125
409,4191.446,-9.16015625,0.46875,2.14453125,4191.6539999999995,-0.81640625,0.078125,-0.04296875,4191.38,30.1875,-10.875,-12.25
410,4201.354,-9.3046875,0.3359375,1.93359375,4201.429,-0.693359375,0.083984375,-0.052734375,4201.2919999999995,29.4375,-10.6875,-12.0625
411,4211.423,-9.3671875,0.23046875,1.828125,4211.331999999999,-0.611328125,0.08984375,-0.0390625,4211.428,29.5625,-11.3125,-13.375
412,4221.478,-9.5234375,0.0,1.68359375,4221.433,-0.533203125,0.091796875,0.01171875,4221.4619999999995,30.125,-10.9375,-14.1875
413,4234.092000000001,-9.58984375,-0.01953125,1.46484375,4233.872,-0.521484375,0.091796875,0.0859375,4233.883,30.3125,-10.9375,-13.5
414,4243.903,-9.5,-0.11328125,1.33203125,4244.028,-0.576171875,0.1484375,0.15625,4244.196,29.75,-10.9375,-15.5
415,4253.790999999999,-9.5546875,-0.11328125,1.4375,4253.911999999999,-0.61328125,0.181640625,0.23828125,4253.972,30.3125,-10.9375,-13.5
416,4263.892,-9.46484375,-0.0390625,1.234375,4263.9,-0.65234375,0.232421875,0.314453125,4264.0830000000005,29.6875,-11.75,-12.125
417,4273.8009999999995,-9.50390625,0.01953125,0.9765625,4271.453,-0.73046875,0.26953125,0.353515625,4273.809,29.9375,-11.375,-14.8125
418,4283.768,-9.43359375,-0.0390625,0.84375,4281.404,-0.857421875,0.31640625,0.3984375,4283.777,29.5,-12.375,-13.375
419,4293.586,-9.56640625,0.05859375,0.8984375,4291.41,-0.978515625,0.333984375,0.494140625,4293.591,30.125,-12.0,-14.25
420,4303.536,-9.54296875,0.0859375,0.98828125,4301.527,-1.087890625,0.36328125,0.52734375,4303.562,29.5,-11.75,-12.75
421,4313.293,-9.51953125,0.171875,1.2265625,4311.286,-1.125,0.359375,0.57421875,4313.2970000000005,29.0625,-12.4375,-14.0
422,4321.269,-9.51953125,0.23828125,1.1875,4319.054,-1.11328125,0.34375,0.64453125,4321.18,28.8125,-11.5625,-11.1875
423,4331.125,-9.515625,0.46875,1.08203125,4328.933,-1.0703125,0.318359375,0.716796875,4331.1320000000005,28.8125,-11.5625,-11.1875
424,4343.082,-9.578125,0.74609375,1.1015625,4341.338000000001,-1.00390625,0.23828125,0.814453125,4342.994,29.6875,-12.4375,-14.8125
425,4351.157,-9.640625,0.99609375,0.98828125,4348.851,-0.958984375,0.185546875,0.896484375,4351.163,29.6875,-12.4375,-14.8125
426,4368.791,-9.0078125,1.21484375,0.52734375,4366.49,-1.08203125,0.123046875,0.978515625,4368.871,28.875,-13.25,-14.625
427,4378.7,-8.88671875,1.12890625,0.35546875,4376.3730000000005,-1.212890625,0.1171875,1.0,4378.841,29.5,-13.5,-16.1875
428,4383.924999999999,-9.078125,1.265625,0.49609375,4383.8910000000005,-1.359375,0.140625,0.955078125,4383.860000000001,29.4375,-13.25,-15.5
429,4393.955,-9.1953125,1.46484375,0.82421875,4393.98,-1.447265625,0.0703125,0.91015625,4394.040999999999,28.75,-14.375,-16.0
430,4404.017,-9.0,1.40625,1.00390625,4403.939,-1.447265625,-0.0078125,0.876953125,4404.168000000001,29.0625,-13.9375,-16.6875
431,4413.897999999999,-9.12890625,1.5234375,1.07421875,4413.906,-1.4140625,-0.0859375,0.84375,4414.012,28.875,-14.5625,-17.4375
432,4421.452,-9.2578125,1.6484375,1.08203125,4421.387000000001,-1.419921875,-0.099609375,0.845703125,4421.459,28.625,-14.8125,-17.375
433,4431.472000000001,-7.8203125,1.4921875,1.07421875,4431.425,-1.5234375,-0.048828125,0.78125,4431.394,28.1875,-14.8125,-17.875
434,4443.906,-7.81640625,2.13671875,2.18359375,4443.9310000000005,-1.59765625,0.26953125,0.431640625,4444.0160000000005,28.0,-14.625,-16.4375
435,4453.737,-8.26953125,2.27734375,2.61328125,4451.451,-1.4765625,0.34375,0.2421875,4453.808999999999,28.1875,-15.5,-18.5625
436,4463.731,-8.66015625,2.203125,2.43359375,4461.393,-1.2109375,0.400390625,0.037109375,4463.738,28.1875,-15.5,-18.5625
437,4479.66,-8.39453125,2.01953125,1.97265625,4478.979,-0.796875,0.41796875,-0.12890625,4479.631,28.375,-15.875,-18.0
438,4491.454,-8.16015625,1.7421875,1.33203125,4491.513,-0.599609375,0.5,-0.244140625,4491.525000000001,28.5,-15.6875,-18.625
439,4501.48,-8.875,1.4921875,0.5078125,4499.137,-0.541015625,0.478515625,-0.322265625,4501.456,28.5,-15.5,-18.625
440,4511.289,-8.9609375,1.24609375,0.19140625,4509.023,-0.4921875,0.390625,-0.353515625,4511.384,28.5,-15.25,-18.5625
441,4521.102,-9.109375,1.1953125,-0.02734375,4519.119,-0.482421875,0.26953125,-0.349609375,4521.108,28.5,-15.25,-18.5625
442,4532.996,-9.15625,1.12890625,0.23046875,4531.508,-0.521484375,0.12890625,-0.326171875,4533.107,28.375,-14.4375,-17.25
443,4541.496,-8.9296875,1.1953125,0.70703125,4541.512,-0.552734375,0.115234375,-0.287109375,4541.420999999999,29.125,-15.0625,-20.125
444,4551.509,-8.72265625,1.3125,1.03515625,4551.499,-0.53125,0.14453125,-0.279296875,4551.465999999999,28.75,-15.25,-18.6875
445,4561.489,-9.05078125,1.58984375,1.1796875,4561.463,-0.51171875,0.18359375,-0.298828125,4561.549,28.5,-15.0625,-18.5625
446,4573.942,-8.75390625,1.7890625,1.234375,4573.951,-0.52734375,0.251953125,-0.365234375,4573.856,28.75,-14.625,-18.625
447,4581.773,-8.796875,1.84765625,1.2265625,4581.4310000000005,-0.576171875,0.328125,-0.421875,4581.378,28.3125,-14.875,-19.25
448,4590.524,-8.75,1.83984375,0.98828125,4588.892000000001,-0.646484375,0.40625,-0.470703125,4590.6320000000005,28.3125,-14.875,-19.25
449,4601.320000000001,-8.93359375,1.84765625,0.57421875,4601.26,-0.787109375,0.48046875,-0.53125,4601.326,29.4375,-14.25,-20.125
450,4613.879,-8.95703125,1.89453125,0.296875,4614.004000000001,-0.96484375,0.470703125,-0.60546875,4614.331,29.25,-13.5625,-18.0625
451,4620.549,-8.80078125,1.78125,0.32421875,4620.383000000001,-1.044921875,0.453125,-0.6875,4620.557,29.125,-14.1875,-19.4375
452,4633.986,-8.93359375,1.4453125,0.23046875,4631.433,-1.16796875,0.400390625,-0.783203125,4633.994000000001,30.375,-14.4375,-22.375
453,4643.799999999999,-8.95703125,1.03515625,0.39453125,4641.503000000001,-1.248046875,0.3515625,-0.849609375,4643.809,29.4375,-14.0,-18.125
454,4653.834,-9.2578125,0.671875,0.69140625,4651.612,-1.23046875,0.283203125,-0.89453125,4653.642,29.6875,-14.4375,-20.8125
455,4663.655000000001,-9.4609375,0.15234375,1.07421875,4661.43,-1.15234375,0.203125,-0.91796875,4663.66,30.0,-13.1875,-20.875
456,4673.437,-9.453125,-0.34375,1.4765625,4671.588,-1.015625,0.181640625,-0.869140625,4673.441000000001,29.9375,-12.6875,-20.1875
457,4686.538,-9.70703125,-0.74609375,1.1953125,4686.492,-0.80859375,0.26171875,-0.755859375,4686.478,30.875,-12.9375,-21.8125
458,4701.103,-9.62890625,-1.21484375,0.61328125,4699.056,-0.78515625,0.34375,-0.65625,4701.173,30.0625,-12.3125,-21.5625
459,4711.12,-9.734375,-1.28515625,0.23046875,4709.05,-0.802734375,0.388671875,-0.55859375,4710.9439999999995,30.375,-12.125,-21.625
460,4720.867,-9.671875,-0.91796875,-0.31640625,4719.072,-0.853515625,0.349609375,-0.47265625,4720.962,30.125,-12.125,-21.5625
461,4732.865000000001,-9.296875,-0.8828125,-0.09765625,4731.668,-0.98828125,0.30078125,-0.423828125,4732.871,31.25,-11.875,-20.5
462,4741.5380000000005,-9.3828125,-0.56640625,0.27734375,4741.728,-0.9921875,0.283203125,-0.349609375,4741.455,31.5,-12.0625,-20.5625
463,4750.893,-9.171875,-0.11328125,0.56640625,4749.018999999999,-0.9375,0.244140625,-0.287109375,4750.702,31.375,-11.625,-21.875
464,4764.005,-8.67578125,0.31640625,0.7578125,4763.929,-0.751953125,0.193359375,-0.314453125,4764.02,30.8125,-11.625,-21.0
465,4774.051,-8.4609375,0.46875,0.6328125,4773.974,-0.595703125,0.17578125,-0.40625,4774.119,30.25,-11.4375,-20.1875
466,4783.874,-8.7578125,0.2109375,0.15234375,4783.898,-0.525390625,0.15625,-0.470703125,4783.9169999999995,31.3125,-11.625,-21.125
467,4793.872,-8.8984375,-0.1640625,-0.375,4793.997,-0.580078125,0.177734375,-0.482421875,4794.141,30.6875,-11.625,-19.6875
468,4804.026000000001,-9.21484375,-0.53515625,-0.69921875,4804.03,-0.771484375,0.197265625,-0.46875,4804.2119999999995,30.625,-11.25,-21.625
469,4813.919,-9.5,-0.91015625,-0.65234375,4813.928,-0.994140625,0.20703125,-0.423828125,4814.053000000001,30.5,-11.6875,-22.875
470,4823.944,-9.64453125,-1.03515625,0.10546875,4821.465,-1.09765625,0.208984375,-0.388671875,4823.7480000000005,30.9375,-11.4375,-19.75
471,4831.456,-9.63671875,-1.0625,0.52734375,4831.451999999999,-1.095703125,0.201171875,-0.259765625,4831.562,30.75,-11.0,-20.3125
472,4843.611,-9.4296875,-0.74609375,0.96875,4841.386,-0.935546875,0.16796875,-0.185546875,4843.616,31.5625,-10.8125,-21.125
473,4851.394,-9.41796875,-0.78515625,0.8125,4851.402,-0.79296875,0.154296875,-0.162109375,4851.647,31.5625,-10.8125,-21.125
474,4863.2609999999995,-9.703125,-1.07421875,0.02734375,4861.49,-0.791015625,0.1796875,-0.134765625,4863.3730000000005,30.6875,-10.1875,-21.625
475,4871.459,-9.515625,-1.07421875,-0.5546875,4869.138000000001,-0.90234375,0.193359375,-0.037109375,4871.464,30.6875,-10.1875,-21.625
476,4891.298,-8.62109375,-0.23046875,-0.57421875,4889.099,-1.359375,0.248046875,0.0625,4891.104,31.875,-10.5625,-21.1875
477,4901.049999999999,-8.40234375,0.19140625,-0.31640625,4898.975,-1.421875,0.185546875,-0.0625,4901.06,31.8125,-10.8125,-23.1875
478,4913.112,-8.8984375,0.0078125,0.3359375,4911.867,-1.369140625,0.103515625,-0.279296875,4912.921,32.25,-10.8125,-22.6875
479,4921.5109999999995,-9.07421875,-0.4296875,0.70703125,4921.589,-1.234375,0.015625,-0.376953125,4921.62,30.5,-10.625,-22.875
480,4934.0960000000005,-9.640625,-1.12890625,0.96875,4934.02,-0.98046875,-0.025390625,-0.361328125,4934.460999999999,32.6875,-10.375,-24.125
481,4943.905,-9.81640625,-1.21484375,0.9296875,4943.912,-0.87109375,0.02734375,-0.2265625,4944.017,31.375,-10.5625,-21.8125
482,4956.505,-9.515625,-0.99609375,0.49609375,4954.018999999999,-0.828125,0.109375,-0.123046875,4956.31,31.125,-10.1875,-23.6875
483,4964.341,-9.4140625,-0.71875,0.14453125,4964.151,-0.802734375,0.15625,-0.021484375,4964.104,31.75,-10.1875,-25.125
484,4974.116999999999,-9.140625,-0.35546875,-0.3046875,4973.8769999999995,-0.822265625,0.11328125,0.03515625,4974.0070000000005,31.1875,-10.4375,-24.375
485,4984.083,-8.91796875,-0.19140625,-0.35546875,4983.944,-0.822265625,0.025390625,0.015625,4984.271,31.9375,-10.375,-24.5625
486,4993.873,-8.72265625,-0.18359375,-0.19921875,4993.972000000001,-0.845703125,-0.03125,-0.01953125,4994.036999999999,30.875,-10.4375,-23.625
487,5004.082,-8.96875,-0.32421875,-0.171875,5001.384,-0.896484375,0.013671875,-0.064453125,5003.89,31.9375,-9.125,-24.5
488,5013.943,-9.04296875,-0.671875,-0.02734375,5011.541,-0.9375,0.02734375,-0.0859375,5013.951999999999,31.4375,-10.625,-22.4375
489,5023.8589999999995,-9.30078125,-0.95703125,-0.2109375,5021.615,-0.947265625,0.044921875,-0.1015625,5023.664,32.25,-9.8125,-25.25
490,5033.739,-9.68359375,-1.109375,-0.19140625,5031.493,-0.96875,0.005859375,-0.09765625,5033.544,32.1875,-9.5625,-24.5625
491,5041.622,-9.65234375,-1.12109375,0.1328125,5041.493,-0.966796875,-0.01953125,-0.099609375,5041.5650000000005,32.1875,-9.5625,-24.5625
492,5053.378000000001,-9.51171875,-1.12890625,0.62109375,5051.612999999999,-0.916015625,-0.025390625,-0.048828125,5053.49,32.5,-9.75,-24.625
493,5061.324,-9.43359375,-0.98828125,0.515625,5058.884,-0.857421875,-0.001953125,-0.0234375,5061.332,32.5,-9.75,-24.625
494,5079.138999999999,-9.20703125,-0.515625,0.05859375,5078.996,-0.806640625,0.052734375,0.00390625,5079.34,31.8125,-10.0,-25.875
495,5088.963,-8.8671875,-0.40234375,-0.5546875,5086.669,-0.8125,0.0546875,-0.033203125,5088.974999999999,31.875,-9.5625,-23.875
496,5096.409000000001,-8.98828125,-0.40234375,-0.69921875,5096.528,-0.890625,0.0234375,-0.07421875,5096.591,31.9375,-9.8125,-27.125
497,5101.539,-8.9609375,-0.421875,-0.69921875,5101.617,-0.939453125,0.009765625,-0.115234375,5101.648,31.75,-9.8125,-27.0625
498,5111.44,-8.8828125,-0.52734375,-0.7265625,5111.516,-1.009765625,-0.048828125,-0.1484375,5111.601000000001,32.0,-9.8125,-27.875
499,5121.556,-9.25,-0.546875,-0.27734375,5121.555,-1.080078125,-0.060546875,-0.19921875,5121.5599999999995,31.5,-9.8125,-25.0625
500,5131.66,-9.05859375,-0.7578125,0.046875,5131.518,-1.091796875,-0.087890625,-0.25,5131.4619999999995,31.6875,-9.375,-26.4375
501,5144.092,-9.265625,-1.109375,-0.02734375,5144.144,-1.107421875,-0.05078125,-0.302734375,5144.084999999999,32.3125,-9.625,-27.9375
502,5153.898,-9.52734375,-1.40625,-0.31640625,5153.9039999999995,-1.181640625,0.0,-0.287109375,5154.01,32.8125,-9.625,-28.0625
503,5161.553,-9.625,-1.58984375,-0.40234375,5161.509,-1.248046875,0.01171875,-0.234375,5161.359,32.625,-9.8125,-28.625
504,5171.614,-9.8515625,-1.5703125,-0.25,5171.546,-1.302734375,0.03125,-0.09375,5171.517,32.625,-8.9375,-28.625
505,5181.587,-9.71875,-1.3125,-0.23046875,5181.593999999999,-1.294921875,-0.00390625,0.03125,5181.701,32.625,-8.9375,-28.625
506,5193.901000000001,-9.28125,-0.8515625,-0.27734375,5191.405,-1.2578125,-0.05859375,0.068359375,5193.91,32.5625,-9.375,-28.0
507,5203.766,-8.61328125,-0.65234375,-0.39453125,5201.536,-1.27734375,-0.0859375,0.08203125,5203.774,32.8125,-9.625,-28.0625
508,5213.72,-8.2734375,-0.44140625,-0.25,5211.4929999999995,-1.333984375,-0.10546875,-0.013671875,5213.525,33.0,-9.1875,-29.4375
509,5221.421,-8.5390625,-0.4296875,-0.3359375,5221.446,-1.337890625,-0.095703125,-0.150390625,5221.607,33.0,-9.1875,-29.4375
510,5233.428,-9.17578125,-0.890625,-0.23046875,5231.503,-1.337890625,-0.115234375,-0.263671875,5233.338,32.25,-9.0,-29.875
511,5241.197999999999,-9.43359375,-1.24609375,0.06640625,5239.148,-1.294921875,-0.185546875,-0.328125,5241.204,32.25,-9.0,-29.875
512,5261.321,-9.703125,-1.58984375,0.9296875,5259.11,-1.044921875,-0.26953125,-0.3203125,5261.127,32.6875,-8.8125,-31.3125
513,5271.227,-9.44140625,-1.6171875,1.0234375,5269.184,-0.8671875,-0.244140625,-0.205078125,5271.232999999999,33.1875,-9.0,-31.5
514,5281.676,-9.4765625,-1.6171875,1.04296875,5281.509,-0.646484375,-0.25,-0.087890625,5281.617,32.875,-8.375,-30.625
515,5291.023,-9.50390625,-1.59765625,0.77734375,5289.128,-0.5234375,-0.2265625,-0.029296875,5290.832,33.25,-8.375,-32.0625
516,5304.042,-9.38671875,-1.54296875,0.27734375,5304.066,-0.396484375,-0.15234375,0.052734375,5304.156,33.1875,-8.8125,-31.4375
517,5313.996999999999,-9.4375,-1.54296875,-0.2109375,5314.001,-0.423828125,-0.126953125,0.048828125,5313.907,33.0,-8.625,-32.0
518,5321.5779999999995,-9.6796875,-1.51171875,-0.5859375,5321.579,-0.505859375,-0.068359375,0.076171875,5321.385,32.8125,-8.8125,-32.625
519,5330.722,-9.390625,-1.54296875,-0.44921875,5330.629,-0.5859375,-0.111328125,0.125,5330.635,32.8125,-8.8125,-32.625
520,5344.027999999999,-9.453125,-1.33984375,-0.44921875,5343.9529999999995,-0.693359375,-0.154296875,0.169921875,5344.121,32.6875,-8.1875,-33.9375
521,5354.072999999999,-9.265625,-1.51171875,-0.1328125,5354.08,-0.76953125,-0.1171875,0.173828125,5354.061,32.9375,-8.875,-34.0
522,5361.619,-9.14453125,-1.42578125,0.0390625,5361.626,-0.7734375,-0.15625,0.181640625,5361.64,32.9375,-8.875,-34.0
523,5373.977,-9.5546875,-1.5625,-0.18359375,5371.456,-0.79296875,-0.123046875,0.212890625,5374.121,33.0,-9.25,-34.6875
524,5383.92,-9.25,-1.4453125,0.0390625,5381.519,-0.826171875,-0.11328125,0.294921875,5384.0289999999995,33.375,-8.1875,-35.4375
525,5393.843000000001,-9.15625,-1.234375,0.19140625,5391.625,-0.82421875,-0.15625,0.287109375,5393.751,33.25,-8.625,-34.6875
526,5403.581,-9.12890625,-0.95703125,0.421875,5401.566,-0.8203125,-0.150390625,0.271484375,5403.692999999999,32.9375,-8.1875,-34.0
527,5413.5650000000005,-9.58203125,-0.8046875,0.73828125,5411.482,-0.765625,-0.150390625,0.236328125,5413.6759999999995,33.4375,-8.625,-34.125
528,5421.454,-9.09765625,-0.8125,1.015625,5419.103,-0.673828125,-0.130859375,0.26171875,5421.5289999999995,32.25,-9.0625,-34.5
529,5431.276000000001,-9.140625,-0.48046875,1.20703125,5429.092,-0.55078125,-0.111328125,0.205078125,5431.282999999999,33.0625,-8.4375,-35.375
530,5441.169000000001,-9.56640625,-0.41015625,0.78515625,5439.022,-0.416015625,-0.0390625,0.140625,5441.175,32.625,-8.875,-35.9375
531,5451.102,-9.05078125,-0.65234375,0.49609375,5449.237,-0.3203125,-0.0234375,0.173828125,5451.1089999999995,32.8125,-9.0625,-35.375
532,5461.528,-9.140625,-0.69140625,0.0390625,5461.562,-0.271484375,-0.037109375,0.107421875,5461.47,33.4375,-8.875,-36.75
533,5471.606000000001,-9.203125,-0.8125,-0.21875,5471.755,-0.306640625,-0.0625,0.08984375,5471.724,32.0,-9.5,-34.4375
534,5480.772,-9.58984375,-0.82421875,-0.35546875,5479.125,-0.333984375,-0.08203125,0.068359375,5480.781999999999,32.9375,-8.4375,-36.625
535,5494.223,-9.44140625,-0.765625,-0.421875,5494.028,-0.39453125,-0.16015625,0.08984375,5494.133,32.4375,-9.3125,-36.5
536,5503.9980000000005,-9.21484375,-0.8046875,-0.39453125,5504.006,-0.46875,-0.185546875,0.078125,5504.112,32.875,-9.0625,-36.0
537,5514.1669999999995,-9.203125,-0.8046875,-0.23828125,5514.013,-0.541015625,-0.19921875,0.072265625,5514.139,33.0625,-9.25,-35.4375
538,5526.289000000001,-9.26171875,-0.8046875,0.078125,5524.064,-0.56640625,-0.208984375,0.0859375,5526.294,32.8125,-9.0625,-37.3125
539,5536.331999999999,-9.3828125,-0.671875,0.3828125,5534.084,-0.59765625,-0.150390625,0.06640625,5536.202,32.5625,-8.875,-35.3125
540,5541.598,-9.390625,-0.59375,0.48828125,5541.5289999999995,-0.580078125,-0.140625,0.080078125,5541.502,32.75,-9.375,-39.8125
541,5551.614,-9.33984375,-0.48828125,0.546875,5551.622,-0.54296875,-0.103515625,0.07421875,5551.728,32.75,-9.375,-39.8125
542,5563.924,-9.1171875,-0.32421875,0.49609375,5561.544,-0.49609375,-0.1015625,0.041015625,5563.95,32.5,-9.125,-37.25
543,5573.784,-9.05078125,-0.27734375,0.2578125,5571.55,-0.45703125,-0.107421875,0.017578125,5573.804,33.0,-9.3125,-37.375
544,5583.727,-9.0,-0.296875,-0.0859375,5581.597000000001,-0.46484375,-0.083984375,-0.02734375,5583.64,33.0625,-8.6875,-38.0
545,5593.511,-8.93359375,-0.35546875,-0.34375,5591.456,-0.53125,-0.07421875,-0.078125,5593.622,33.0,-8.9375,-39.25
546,5603.393,-8.87109375,-0.39453125,-0.46875,5601.629,-0.623046875,-0.080078125,-0.130859375,5603.505,32.9375,-8.6875,-38.625
547,5611.3910000000005,-8.6640625,-0.515625,-0.3046875,5609.168000000001,-0.703125,-0.08984375,-0.201171875,5611.398,33.4375,-8.6875,-38.6875
548,5621.118,-8.734375,-0.53515625,0.0078125,5619.117,-0.748046875,-0.10546875,-0.330078125,5621.2119999999995,32.4375,-8.25,-38.4375
549,5631.121,-8.6640625,-0.77734375,0.44140625,5629.0779999999995,-0.751953125,-0.109375,-0.421875,5631.127,33.75,-8.5,-39.4375
550,5642.995,-8.87109375,-1.2265625,0.546875,5641.599,-0.705078125,-0.037109375,-0.478515625,5643.001,33.5625,-8.6875,-40.0
551,5651.674,-9.2109375,-1.4921875,0.546875,5651.862999999999,-0.66796875,-0.017578125,-0.482421875,5651.572,33.1875,-8.5,-39.3125
552,5664.138999999999,-9.44140625,-1.609375,0.57421875,5664.145,-0.591796875,-0.048828125,-0.373046875,5664.251,33.875,-7.875,-40.75
553,5671.714,-9.3125,-1.63671875,0.44140625,5671.6759999999995,-0.57421875,-0.05859375,-0.333984375,5671.820000000001,33.125,-8.5,-40.625
554,5681.621,-9.453125,-1.59765625,0.3046875,5681.576,-0.552734375,-0.091796875,-0.248046875,5681.603,33.6875,-8.0625,-41.375
555,5694.098,-9.19921875,-1.58984375,0.32421875,5694.059,-0.525390625,-0.1171875,-0.1796875,5694.086,33.4375,-7.4375,-38.6875
556,5704.1,-9.12109375,-1.54296875,0.44140625,5704.223,-0.517578125,-0.138671875,-0.142578125,5704.3910000000005,32.1875,-7.6875,-38.375
557,5714.034,-9.0546875,-1.42578125,0.53515625,5713.958,-0.482421875,-0.1328125,-0.1328125,5714.14,33.375,-7.0,-40.625
558,5724.043,-9.140625,-1.3203125,0.44140625,5724.048,-0.4921875,-0.115234375,-0.119140625,5724.177,32.625,-7.4375,-40.4375
559,5733.942,-9.08984375,-1.37890625,0.32421875,5731.579,-0.484375,-0.10546875,-0.09765625,5733.951,33.4375,-7.25,-41.25
560,5743.95,-8.921875,-1.4453125,0.21875,5741.571000000001,-0.49609375,-0.119140625,-0.07421875,5743.85,33.75,-7.4375,-42.0
561,5753.801,-8.8828125,-1.58984375,0.14453125,5751.561,-0.529296875,-0.12109375,-0.08984375,5753.809,32.9375,-7.0,-41.125
562,5763.675,-9.1640625,-1.71484375,0.14453125,5761.653,-0.572265625,-0.123046875,-0.103515625,5763.683,33.875,-6.875,-42.6875
563,5773.558999999999,-9.33203125,-1.98046875,0.27734375,5771.531999999999,-0.58984375,-0.146484375,-0.091796875,5773.564,33.9375,-7.0,-40.75
564,5781.652,-9.58984375,-2.05859375,0.32421875,5779.075,-0.60546875,-0.150390625,-0.044921875,5781.564,33.5625,-7.1875,-39.9375
565,5791.476000000001,-9.8203125,-1.88671875,0.36328125,5789.249,-0.623046875,-0.146484375,0.04296875,5791.57,33.75,-7.25,-42.0
566,5801.285,-9.63671875,-1.59765625,0.421875,5799.121999999999,-0.640625,-0.154296875,0.15625,5801.397,33.3125,-6.625,-41.8125
567,5816.683,-9.0859375,-1.16796875,0.49609375,5816.576,-0.685546875,-0.140625,0.197265625,5816.545999999999,34.0,-6.875,-44.0
568,5826.753,-8.80078125,-0.94921875,0.546875,5826.702,-0.681640625,-0.142578125,0.12890625,5826.717000000001,33.375,-7.4375,-40.625
569,5838.832,-8.9609375,-0.96875,0.53515625,5836.42,-0.65234375,-0.1875,0.052734375,5838.931,33.625,-7.25,-43.3125
570,5844.178999999999,-9.03515625,-1.0546875,0.546875,5843.93,-0.654296875,-0.193359375,0.015625,5844.1,33.75,-7.4375,-42.0
571,5854.1939999999995,-9.390625,-1.0546875,0.35546875,5854.014,-0.669921875,-0.212890625,0.005859375,5854.027,32.9375,-6.6875,-43.0625
572,5864.173,-9.5859375,-1.1015625,0.19140625,5864.197,-0.70703125,-0.2421875,0.015625,5864.166,33.375,-6.1875,-42.5625
573,5874.005,-9.41015625,-1.109375,0.171875,5874.029,-0.7578125,-0.271484375,0.02734375,5874.257,33.25,-7.3125,-43.8125
574,5884.053,-9.265625,-1.234375,-0.11328125,5884.058,-0.857421875,-0.1875,-0.015625,5884.226,33.4375,-7.0625,-43.25
575,5891.886,-9.41796875,-1.359375,-0.35546875,5891.666,-0.990234375,-0.119140625,-0.056640625,5891.592000000001,34.0,-6.6875,-46.6875
576,5901.679999999999,-9.62890625,-1.50390625,-0.40234375,5901.688,-1.134765625,-0.12109375,-0.048828125,5901.794,34.0,-6.6875,-46.6875
577,5914.0470000000005,-9.3828125,-1.62890625,-0.7578125,5911.487,-1.2890625,-0.169921875,-0.03515625,5913.856,33.5,-6.5,-46.5625
578,5921.731000000001,-9.3671875,-1.62890625,-0.73828125,5921.535000000001,-1.4296875,-0.28125,-0.03125,5921.6449999999995,33.5,-6.5,-46.5625
579,5931.692,-9.30078125,-1.59765625,-0.671875,5931.576,-1.552734375,-0.4375,0.005859375,5931.598,33.8125,-6.0625,-46.625
580,5943.901999999999,-9.03125,-1.58984375,-0.44921875,5941.524,-1.71484375,-0.453125,-0.015625,5943.907,34.25,-6.9375,-46.75
581,5953.634,-9.09375,-1.5234375,-0.41015625,5951.602,-1.888671875,-0.4453125,-0.013671875,5953.742,33.625,-6.25,-47.1875
582,5963.655,-9.0546875,-1.3515625,-0.2578125,5961.491,-2.046875,-0.46484375,-0.013671875,5963.567,33.875,-5.1875,-47.25
583,5971.544,-8.86328125,-1.234375,-0.21875,5969.164,-2.166015625,-0.43359375,-0.0078125,5971.45,33.625,-5.875,-47.1875
584,5986.818,-8.53125,-1.234375,0.36328125,5986.652,-2.423828125,-0.28125,-0.11328125,5986.738,33.125,-5.0,-47.0
585,5999.081999999999,-9.07421875,-1.58203125,1.0546875,5996.589,-2.5078125,-0.166015625,-0.212890625,5999.162,33.125,-5.4375,-47.6875
586,6008.982,-9.30078125,-1.88671875,2.13671875,6006.579000000001,-2.44140625,-0.046875,-0.2109375,6009.238,34.5625,-5.25,-49.375
587,6016.717,-9.5078125,-2.05859375,2.7109375,6016.638999999999,-2.1640625,-0.0234375,-0.150390625,6016.61,34.0,-4.1875,-50.5625
588,6022.849,-9.5234375,-2.22265625,3.515625,6021.576,-1.93359375,0.009765625,-0.103515625,6022.858,33.5,-4.625,-48.4375
589,6030.769,-9.3671875,-2.125,3.484375,6029.254,-1.5625,0.0390625,-0.009765625,6030.878000000001,33.5,-4.625,-48.4375
590,6041.703,-8.8828125,-2.05078125,2.8828125,6041.689,-1.01953125,0.150390625,0.076171875,6041.508000000001,33.125,-4.0,-49.6875
591,6056.476,-8.74609375,-1.8203125,1.38671875,6054.109,-0.662109375,0.21875,0.083984375,6056.482,33.75,-4.0,-50.5
592,6066.493,-8.9296875,-1.62890625,0.48046875,6064.0689999999995,-0.515625,0.205078125,0.09765625,6066.4980000000005,33.6875,-3.5625,-49.8125
593,6076.492,-9.1328125,-1.58203125,0.046875,6074.263,-0.501953125,0.154296875,0.099609375,6076.298000000001,33.0625,-3.625,-50.9375
594,6081.853,-9.12109375,-1.5703125,0.01953125,6081.588,-0.52734375,0.111328125,0.125,6081.756,33.875,-3.5625,-49.125
595,6097.982,-8.97265625,-1.5703125,0.46875,6096.7029999999995,-0.6171875,0.09765625,0.083984375,6097.9039999999995,32.1875,-3.75,-47.5
596,6111.753000000001,-8.87890625,-1.71484375,0.9375,6111.710999999999,-0.599609375,0.1640625,0.07421875,6111.643,33.75,-3.75,-50.4375
597,6123.876,-8.91015625,-2.17578125,1.3203125,6121.63,-0.4609375,0.185546875,0.095703125,6123.746999999999,33.5625,-3.5625,-48.4375
598,6133.657999999999,-9.11328125,-2.40234375,1.1015625,6131.616,-0.330078125,0.2421875,0.173828125,6133.667,34.5625,-3.75,-48.6875
599,6141.530000000001,-9.05078125,-2.296875,1.12890625,6139.157,-0.251953125,0.28125,0.26171875,6141.642,33.6875,-3.375,-49.8125
600,6151.532999999999,-9.171875,-1.7421875,0.8125,6149.015,-0.158203125,0.306640625,0.357421875,6151.3369999999995,33.6875,-3.375,-49.8125
601,6161.692999999999,-9.34765625,-1.234375,0.59375,6161.716,-0.041015625,0.248046875,0.455078125,6161.643,34.125,-3.75,-49.1875
602,6171.288,-9.24609375,-0.56640625,0.5546875,6169.291,-0.013671875,0.236328125,0.443359375,6171.112,33.625,-3.6875,-47.125
603,6181.754,-8.99609375,-0.296875,0.23046875,6181.587,-0.0078125,0.267578125,0.3359375,6181.756,34.625,-3.9375,-49.3125
604,6191.048000000001,-8.48828125,-0.52734375,0.09765625,6189.2339999999995,0.01171875,0.271484375,0.23828125,6191.055,33.1875,-4.375,-47.75
605,6201.643,-8.609375,-0.9375,-0.06640625,6201.718,0.044921875,0.22265625,0.046875,6201.579,33.75,-3.75,-47.875
606,6211.714,-9.0546875,-1.42578125,-0.10546875,6211.619,0.041015625,0.212890625,-0.03125,6211.715,33.75,-3.5625,-47.875
607,6221.683,-9.58203125,-1.5703125,0.19921875,6221.538,0.001953125,0.29296875,0.033203125,6221.466,33.6875,-4.625,-47.875
608,6234.327,-9.50390625,-1.4453125,0.421875,6234.130999999999,0.001953125,0.427734375,0.107421875,6234.205,34.5625,-4.125,-46.75
609,6244.112,-9.28125,-1.265625,0.27734375,6244.136,0.068359375,0.419921875,0.119140625,6244.048000000001,33.75,-3.25,-45.125
610,6254.128,-8.87890625,-1.16796875,0.1640625,6254.0509999999995,0.177734375,0.34765625,0.09375,6254.42,34.3125,-3.6875,-46.625
611,6264.233,-8.796875,-1.03515625,-0.171875,6264.158,0.208984375,0.361328125,0.08203125,6264.214,33.875,-3.9375,-46.5625
612,6274.081,-9.03515625,-0.91796875,-0.7578125,6271.715,0.15625,0.365234375,0.046875,6274.09,34.4375,-4.125,-45.3125
613,6283.923,-8.9453125,-1.04296875,-1.0625,6281.539000000001,0.0625,0.3359375,0.0390625,6283.928000000001,34.25,-3.6875,-45.875
614,6293.872,-9.03125,-1.1015625,-1.16015625,6291.637,-0.0625,0.263671875,0.001953125,6293.88,33.75,-4.75,-45.8125
615,6303.747,-9.12890625,-1.28515625,-0.79296875,6301.515,-0.1640625,0.1640625,-0.03125,6303.755,33.6875,-3.875,-45.125
616,6311.7210000000005,-9.3046875,-1.3515625,-0.5546875,6311.528,-0.19921875,0.1171875,-0.060546875,6311.7080000000005,33.6875,-3.875,-45.125
617,6323.567,-9.6328125,-1.51171875,0.0078125,6321.811000000001,-0.1640625,0.10546875,-0.041015625,6323.476000000001,33.5,-4.375,-45.75
618,6333.402,-9.59765625,-1.55078125,0.1640625,6331.648,-0.115234375,0.146484375,-0.00390625,6333.513,34.1875,-4.125,-45.25
619,6341.546,-9.5234375,-1.5703125,-0.23828125,6339.197999999999,-0.06640625,0.19140625,0.009765625,6341.452,33.4375,-4.5625,-45.125
620,6351.304,-9.328125,-1.59765625,-0.7265625,6349.214,-0.052734375,0.224609375,0.02734375,6351.307000000001,34.3125,-4.6875,-43.9375
621,6363.128,-9.37109375,-1.609375,-1.12109375,6361.563,-0.125,0.2109375,0.021484375,6363.134,33.5625,-3.6875,-43.75
622,6371.72,-9.4296875,-1.6171875,-1.3515625,6371.797,-0.236328125,0.14453125,0.060546875,6371.632,32.625,-4.125,-42.25
623,6380.996999999999,-9.421875,-1.63671875,-1.4453125,6379.321,-0.345703125,0.09375,0.08984375,6381.003,34.8125,-4.0625,-44.0625
624,6391.035,-9.375,-1.59765625,-1.4921875,6389.103999999999,-0.51953125,0.01953125,0.15625,6390.846,33.75,-4.5625,-43.8125
625,6401.8730000000005,-9.125,-1.51171875,-1.41796875,6401.735000000001,-0.78515625,0.01953125,0.169921875,6401.764,34.25,-3.625,-43.3125
626,6414.137000000001,-8.91796875,-1.21484375,-1.03515625,6414.141,-1.0546875,0.064453125,0.16015625,6414.215999999999,33.8125,-4.125,-43.8125
627,6424.183,-8.7890625,-1.08203125,-0.74609375,6424.307,-1.212890625,0.162109375,0.115234375,6424.477000000001,33.625,-4.5,-42.5625
628,6434.110000000001,-9.109375,-1.109375,-0.71875,6434.034,-1.3046875,0.26953125,0.083984375,6434.357,34.1875,-3.6875,-45.25
629,6444.163,-9.24609375,-1.51171875,-0.8046875,6444.168000000001,-1.412109375,0.322265625,0.09375,6444.348,34.25,-3.625,-43.3125
630,6451.926,-9.40625,-1.59765625,-1.08984375,6451.7480000000005,-1.51953125,0.35546875,0.13671875,6451.6900000000005,33.6875,-2.8125,-44.4375
631,6461.553,-9.6484375,-1.703125,-1.609375,6461.562,-1.69140625,0.421875,0.22265625,6461.745,33.6875,-2.8125,-44.4375
632,6474.085,-9.91015625,-1.65625,-2.6328125,6471.701999999999,-1.970703125,0.423828125,0.326171875,6474.090999999999,33.0,-3.875,-43.0
633,6489.757,-9.2265625,-1.59765625,-2.47265625,6489.305,-2.4375,0.220703125,0.41796875,6489.714,33.8125,-3.0625,-43.75
634,6501.627,-9.0078125,-1.24609375,-1.16796875,6499.736000000001,-2.607421875,0.044921875,0.416015625,6501.7519999999995,34.25,-3.625,-43.3125
635,6514.113,-8.8203125,-0.765625,0.53515625,6514.192,-2.478515625,-0.1328125,0.353515625,6514.278,33.3125,-3.25,-43.6875
636,6521.494,-8.9453125,-0.44921875,1.484375,6519.273,-2.328125,-0.1640625,0.310546875,6521.3859999999995,34.125,-2.8125,-44.5625
637,6531.267,-8.98828125,-0.31640625,2.35546875,6529.245000000001,-1.90625,-0.212890625,0.2578125,6531.379,34.5,-3.25,-45.9375
638,6541.2660000000005,-9.0703125,-0.375,2.81640625,6539.263,-1.4140625,-0.173828125,0.15625,6541.272,34.75,-3.25,-42.75
639,6551.109,-9.203125,-0.48828125,2.87109375,6549.171,-0.8359375,-0.109375,0.087890625,6551.1140000000005,33.0625,-3.0625,-43.5625
640,6561.034000000001,-9.5859375,-0.59375,2.78515625,6559.250999999999,-0.265625,-0.046875,0.033203125,6561.04,34.5625,-2.8125,-43.3125
641,6574.223,-9.921875,-1.00390625,2.13671875,6574.148,0.53125,0.01171875,0.0390625,6574.218,34.0,-2.8125,-43.1875
642,6584.349999999999,-10.03515625,-1.1484375,1.4765625,6584.155,0.962890625,0.0390625,0.111328125,6584.264,34.5625,-2.5625,-43.3125
643,6590.887000000001,-9.84375,-1.3203125,0.83203125,6589.25,1.126953125,0.060546875,0.16015625,6590.896,34.5625,-2.5625,-43.3125
644,6604.297,-9.4921875,-1.21484375,0.23046875,6604.102,1.455078125,0.0546875,0.259765625,6604.211,33.875,-3.0625,-44.5
645,6612.077,-9.34375,-1.0234375,-0.0859375,6611.794,1.58984375,0.03515625,0.30078125,6611.783,33.8125,-3.25,-43.75
646,6621.807000000001,-9.2109375,-0.5546875,-0.40234375,6621.733,1.689453125,0.056640625,0.28125,6621.9039999999995,33.8125,-3.25,-43.75
647,6631.643999999999,-8.8203125,-0.3359375,-0.9765625,6631.652,1.66015625,0.07421875,0.232421875,6631.78,33.8125,-3.25,-43.75
648,6644.0869999999995,-8.37109375,-0.15234375,-2.2109375,6641.79,1.46484375,0.12109375,0.125,6644.093,33.875,-3.6875,-44.5625
649,6654.081,-8.71484375,-0.26953125,-2.90234375,6651.716,1.134765625,0.138671875,0.041015625,6654.088,34.4375,-4.3125,-45.375
650,6661.798,-8.87890625,-0.3046875,-3.11328125,6661.605,0.734375,0.080078125,-0.009765625,6661.856,34.4375,-4.3125,-45.375
651,6673.73,-9.21484375,-0.6328125,-2.8828125,6671.884999999999,0.369140625,0.0390625,-0.05078125,6673.839,33.75,-4.0625,-41.1875
652,6683.620999999999,-9.39453125,-0.765625,-2.09765625,6681.650000000001,0.052734375,-0.0234375,-0.037109375,6683.728999999999,34.0,-4.0625,-43.25
653,6691.523,-9.41015625,-0.83203125,-1.08203125,6689.179,-0.07421875,-0.08203125,-0.02734375,6691.594,34.0625,-4.25,-41.25
654,6704.183,-9.14453125,-0.86328125,-0.296875,6704.361,-0.052734375,-0.123046875,0.033203125,6704.245,34.25,-3.875,-43.3125
655,6713.373,-9.12890625,-0.59375,-0.27734375,6711.686000000001,0.001953125,-0.05859375,0.0546875,6713.4039999999995,33.5625,-4.0625,-41.75
656,6721.742,-8.953125,-0.3828125,-0.59375,6721.774,0.013671875,0.009765625,0.060546875,6721.722,34.125,-4.5625,-44.625
657,6731.864,-8.80078125,-0.25,-0.78515625,6731.695000000001,0.037109375,-0.0078125,0.021484375,6731.824,34.0,-4.5,-43.25
658,6741.024,-8.97265625,-0.3828125,-1.07421875,6739.147,0.01953125,-0.033203125,-0.04296875,6741.030000000001,34.875,-4.6875,-44.875
659,6750.934,-9.22265625,-0.5546875,-1.16796875,6749.481000000001,-0.015625,-0.080078125,-0.076171875,6750.9439999999995,34.0625,-3.875,-43.875
660,6764.187,-9.46484375,-0.671875,-0.77734375,6764.192,-0.076171875,-0.140625,-0.0703125,6764.3,33.5625,-4.3125,-43.75
661,6772.067,-9.34375,-0.7578125,-0.56640625,6771.726000000001,-0.068359375,-0.140625,-0.046875,6771.672,33.6875,-4.0625,-43.1875
662,6784.219,-9.3828125,-0.765625,0.1328125,6784.2390000000005,0.041015625,-0.107421875,-0.015625,6784.21,33.9375,-3.875,-42.5625
663,6794.249,-9.3515625,-0.69921875,0.70703125,6794.17,0.185546875,-0.060546875,0.005859375,6794.183999999999,33.8125,-3.875,-43.8125
664,6804.121,-9.28515625,-0.640625,1.015625,6804.245,0.40234375,0.03515625,0.025390625,6804.372,33.5625,-4.75,-43.8125
665,6814.196,-9.05078125,-0.5078125,0.5546875,6814.2,0.57421875,0.1328125,0.02734375,6814.3820000000005,33.875,-4.125,-44.5625
666,6824.066,-9.109375,-0.44140625,-0.62109375,6821.705,0.650390625,0.208984375,0.0078125,6824.071,33.375,-4.3125,-44.4375
667,6831.701,-9.04296875,-0.48828125,-1.015625,6831.737999999999,0.619140625,0.2265625,0.001953125,6831.807000000001,33.8125,-3.875,-43.8125
668,6841.653,-9.05859375,-0.671875,-1.97265625,6841.657999999999,0.458984375,0.169921875,-0.017578125,6841.908,33.8125,-3.875,-43.8125
669,6853.701,-9.33203125,-0.8515625,-2.1640625,6851.713,0.2578125,0.11328125,-0.0078125,6853.81,33.3125,-4.3125,-43.6875
670,6863.651,-9.453125,-0.86328125,-1.51171875,6861.592,0.095703125,0.01953125,0.0078125,6863.759,33.9375,-4.5,-42.625
671,6871.531,-9.55078125,-0.8046875,-0.96875,6869.290999999999,0.05078125,-0.060546875,0.013671875,6871.602,33.3125,-5.125,-41.75
672,6881.419,-9.375,-0.8125,-0.671875,6879.148,0.109375,-0.146484375,0.009765625,6881.321,34.0,-4.3125,-43.25
673,6891.249,-9.3359375,-0.69921875,-0.36328125,6889.429,0.17578125,-0.16015625,0.01171875,6891.340999999999,34.0,-4.5,-43.25
674,6901.268,-9.25390625,-0.62109375,-0.48046875,6899.202,0.220703125,-0.109375,0.015625,6901.27,34.125,-5.375,-42.6875
675,6913.103,-9.09765625,-0.5078125,-0.8046875,6911.911,0.20703125,-0.05859375,0.009765625,6913.11,34.25,-4.6875,-43.3125
676,6921.2660000000005,-9.04296875,-0.5078125,-1.07421875,6919.412,0.146484375,-0.05859375,-0.0078125,6921.072,33.9375,-4.9375,-43.25
677,6934.22,-9.0703125,-0.61328125,-1.21484375,6934.040000000001,-0.033203125,-0.048828125,-0.02734375,6934.313,34.0,-4.5,-43.25
678,6948.724,-9.33984375,-0.91015625,-0.84375,6946.7970000000005,-0.158203125,-0.056640625,-0.03125,6948.732,33.875,-4.5625,-44.5625
679,6958.672,-9.3828125,-0.87109375,-0.56640625,6958.601,-0.16796875,-0.0859375,0.009765625,6958.6810000000005,33.875,-4.125,-44.5625
680,6971.758000000001,-9.40625,-0.79296875,-0.31640625,6971.714999999999,-0.1015625,-0.072265625,0.056640625,6971.767,34.1875,-4.6875,-42.6875
681,6982.025000000001,-9.2109375,-0.6796875,-0.27734375,6981.804999999999,-0.068359375,-0.025390625,0.060546875,6981.732,33.9375,-4.6875,-43.25
682,6991.775,-9.09765625,-0.56640625,-0.34375,6991.784,-0.0234375,0.009765625,0.03125,6991.888999999999,33.9375,-4.6875,-43.25
683,7004.142,-9.1640625,-0.53515625,-0.4609375,7001.763000000001,0.04296875,-0.0078125,-0.001953125,7004.146000000001,33.8125,-4.125,-43.8125
684,7013.993,-9.24609375,-0.6328125,-0.62109375,7011.790999999999,0.087890625,0.009765625,-0.025390625,7014.0019999999995,34.1875,-4.3125,-45.25
685,7023.938,-9.21484375,-0.65234375,-0.7265625,7021.692,0.095703125,-0.0078125,-0.017578125,7023.7480000000005,34.0625,-4.125,-46.625
686,7033.733,-9.2265625,-0.82421875,-0.78515625,7031.6900000000005,0.0703125,-0.001953125,0.00390625,7033.744000000001,34.0,-5.125,-43.9375
687,7041.745,-9.265625,-0.7578125,-0.7578125,7039.22,0.04296875,-0.021484375,0.005859375,7041.933,33.5625,-4.3125,-43.75
688,7051.726000000001,-9.296875,-0.765625,-0.7265625,7049.284,0.0078125,-0.033203125,0.025390625,7051.7339999999995,33.5625,-4.3125,-43.75
689,7063.6359999999995,-9.39453125,-0.8515625,-0.48046875,7061.781,0.017578125,-0.048828125,0.037109375,7063.639,34.375,-3.875,-44.6875
690,7071.9580000000005,-9.51171875,-0.890625,-0.18359375,7071.875,0.1015625,-0.07421875,0.048828125,7071.844999999999,33.8125,-4.9375,-44.625
691,7081.344,-9.4375,-0.94921875,0.48828125,7079.326,0.1875,-0.095703125,0.060546875,7081.349999999999,34.625,-4.9375,-44.8125
692,7091.914,-9.51953125,-0.890625,1.12109375,7091.746,0.501953125,-0.103515625,0.099609375,7091.875,34.3125,-4.6875,-43.9375
693,7101.092000000001,-9.3828125,-0.78515625,1.08203125,7099.414000000001,0.716796875,-0.078125,0.1171875,7101.098,33.625,-4.9375,-42.5625
694,7111.027,-9.203125,-0.57421875,0.375,7109.228,0.955078125,-0.0390625,0.16015625,7111.034,34.8125,-4.9375,-46.8125
695,7124.182,-9.12109375,-0.52734375,-0.5859375,7124.191,1.013671875,0.044921875,0.138671875,7124.314,33.5,-5.375,-43.1875
696,7131.812,-9.15625,-0.48828125,-0.8828125,7131.813,0.96484375,0.0546875,0.119140625,7131.622,33.8125,-4.9375,-44.625
697,7140.808,-9.20703125,-0.48828125,-1.28515625,7140.916,0.908203125,0.03125,0.1015625,7140.923,33.8125,-4.9375,-44.625
698,7154.248,-9.19921875,-0.52734375,-1.5703125,7154.253,0.69921875,0.001953125,0.0625,7154.224,33.875,-6.0,-45.3125
699,7161.787,-9.171875,-0.5546875,-1.4453125,7161.703,0.560546875,-0.015625,0.0546875,7161.795,33.125,-5.375,-42.4375
700,7171.972000000001,-9.25,-0.52734375,-1.40625,7171.702,0.40625,0.005859375,0.044921875,7171.871999999999,33.9375,-5.5625,-43.3125
701,7181.737,-8.99609375,-0.5078125,-1.1796875,7181.748,0.240234375,-0.015625,0.052734375,7181.653,33.9375,-5.5625,-43.3125
702,7194.186000000001,-9.19921875,-0.48046875,-0.70703125,7191.76,0.173828125,-0.044921875,0.017578125,7194.191,33.625,-5.5625,-42.5625
703,7204.107,-9.45703125,-0.34375,-0.52734375,7201.874,0.1796875,-0.0234375,0.01953125,7204.115,33.625,-5.1875,-44.5625
704,7213.9,-9.30859375,-0.5078125,-0.4609375,7211.6720000000005,0.181640625,-0.033203125,0.025390625,7213.908,34.0625,-5.8125,-44.6875
705,7221.872,-9.17578125,-0.53515625,-0.71875,7219.433,0.197265625,-0.01953125,0.025390625,7221.68,34.0625,-5.8125,-44.6875
706,7233.660000000001,-9.25,-0.44140625,-0.9375,7231.8,0.150390625,-0.005859375,0.07421875,7233.768999999999,33.5,-5.375,-43.1875
707,7243.5289999999995,-9.125,-0.40234375,-0.86328125,7241.768,0.052734375,0.0078125,0.052734375,7243.539,33.6875,-5.375,-43.25
708,7251.972000000001,-9.15625,-0.34375,-0.8046875,7251.79,0.015625,-0.03125,0.009765625,7251.862,33.375,-6.4375,-42.5625
709,7261.773,-9.16796875,-0.35546875,-0.671875,7261.706,-0.0078125,-0.048828125,-0.021484375,7261.83,33.5,-5.8125,-43.8125
710,7271.258000000001,-9.26953125,-0.421875,-0.3828125,7269.28,-0.01953125,-0.02734375,-0.05078125,7271.263,33.9375,-6.0,-43.3125
711,7281.186,-9.2578125,-0.62109375,-0.0859375,7279.352,-0.00390625,0.00390625,-0.052734375,7281.19,34.0,-5.375,-43.9375
712,7291.043000000001,-9.328125,-0.6015625,-0.1328125,7289.553,0.072265625,0.017578125,-0.05078125,7291.05,33.8125,-5.625,-44.625
713,7304.344,-9.28125,-0.59375,-0.4609375,7304.265,0.185546875,-0.001953125,-0.037109375,7304.556,34.0625,-5.625,-44.6875
714,7314.247,-9.3125,-0.79296875,-0.71875,7314.250999999999,0.1875,0.00390625,-0.021484375,7314.361,34.1875,-5.5625,-43.375
715,7321.8189999999995,-9.3125,-0.70703125,-0.74609375,7321.736,0.14453125,0.01953125,0.0078125,7321.829,33.0,-5.8125,-43.6875
716,7336.629,-9.19921875,-0.640625,-0.71875,7334.187,0.12109375,-0.0234375,0.037109375,7336.637,33.5625,-5.375,-43.8125
717,7344.280000000001,-9.17578125,-0.61328125,-0.5546875,7344.237999999999,0.12109375,-0.056640625,0.009765625,7344.566000000001,33.5,-5.5625,-41.1875
718,7354.259,-9.21875,-0.6328125,-0.36328125,7354.264,0.138671875,-0.048828125,-0.005859375,7354.444,33.4375,-5.75,-43.1875
719,7361.851,-9.28125,-0.71875,-0.375,7361.869000000001,0.15234375,-0.01953125,-0.00390625,7361.961,33.8125,-5.375,-41.875
720,7371.757,-9.34765625,-0.765625,-0.41015625,7371.753,0.154296875,-0.00390625,0.021484375,7371.665,33.9375,-5.1875,-45.875
721,7384.13,-9.35546875,-0.69921875,-0.5078125,7381.743,0.16015625,0.013671875,0.025390625,7383.936000000001,34.125,-5.5625,-42.6875
722,7394.002,-9.21484375,-0.59375,-0.35546875,7391.989,0.181640625,0.013671875,0.0703125,7393.807,33.4375,-5.5625,-43.1875
723,7401.6900000000005,-9.16015625,-0.48828125,-0.27734375,7401.758,0.220703125,0.021484375,0.080078125,7401.834,33.4375,-5.5625,-43.1875
724,7413.628,-9.01171875,-0.35546875,0.02734375,7411.857999999999,0.30078125,0.025390625,0.068359375,7413.737,33.375,-6.0,-42.5625
725,7421.625,-9.0546875,-0.2578125,-0.375,7419.486,0.34765625,0.05078125,0.044921875,7421.775000000001,33.9375,-5.125,-43.25
726,7431.442,-8.98828125,-0.3046875,-0.7578125,7429.317,0.357421875,0.07421875,0.015625,7431.451,33.9375,-5.125,-43.25
727,7443.389,-9.01171875,-0.44140625,-0.94921875,7441.898,0.291015625,0.0546875,-0.021484375,7443.282,33.375,-6.0,-42.5625
728,7451.787,-9.17578125,-0.52734375,-0.84375,7451.717000000001,0.244140625,-0.001953125,-0.05078125,7451.729,33.8125,-6.0,-44.625
729,7461.853999999999,-9.34375,-0.61328125,-0.6015625,7461.996,0.2578125,-0.05859375,-0.044921875,7461.845,34.5,-6.0,-44.0625
730,7474.323,-9.37109375,-0.671875,-0.71875,7474.33,0.279296875,-0.05859375,-0.041015625,7474.236,33.1875,-6.4375,-43.125
731,7481.847,-9.3125,-0.71875,-0.77734375,7481.865,0.251953125,-0.044921875,-0.029296875,7481.853,34.125,-6.1875,-42.75
732,7490.86,-9.26171875,-0.6796875,-0.8515625,7489.302000000001,0.21484375,-0.041015625,-0.021484375,7490.866999999999,34.125,-6.1875,-42.75
733,7504.215,-9.18359375,-0.5546875,-0.765625,7504.219,0.13671875,-0.064453125,-0.0078125,7504.329000000001,34.0,-6.4375,-44.0
734,7511.997,-9.13671875,-0.48046875,-0.73828125,7511.72,0.12109375,-0.083984375,-0.009765625,7511.906,33.4375,-5.75,-43.1875
735,7526.441,-9.01953125,-0.4296875,-0.66015625,7524.218,0.056640625,-0.0546875,-0.048828125,7526.445,33.625,-6.625,-42.625
736,7531.858,-9.00390625,-0.44921875,-0.640625,7531.788,0.001953125,-0.033203125,-0.0546875,7531.761,33.9375,-5.125,-43.25
737,7541.794999999999,-9.14453125,-0.6015625,-0.62109375,7541.8,-0.029296875,-0.00390625,-0.07421875,7541.905,33.9375,-5.125,-43.25
738,7554.082,-9.42578125,-0.8828125,-0.48046875,7551.700000000001,-0.033203125,0.005859375,-0.0390625,7554.086,33.125,-7.0625,-42.5
739,7564.0289999999995,-9.578125,-0.98828125,-0.44921875,7561.788,-0.00390625,0.013671875,-0.005859375,7564.051,34.3125,-6.625,-42.0625
740,7573.906,-9.43359375,-0.91015625,-0.52734375,7571.88,0.0234375,0.009765625,0.048828125,7573.911,34.0625,-5.8125,-44.6875
741,7581.8060000000005,-9.3828125,-0.73828125,-0.53515625,7579.4,0.033203125,0.0,0.060546875,7581.786,33.875,-5.75,-42.6875
742,7591.727,-9.18359375,-0.546875,-0.61328125,7589.2210000000005,0.0546875,-0.021484375,0.083984375,7591.536,33.875,-5.75,-42.6875
743,7603.590999999999,-8.93359375,-0.3359375,-0.66015625,7601.82,0.060546875,-0.025390625,0.05078125,7603.499,33.3125,-6.0,-41.8125
744,7611.71,-8.95703125,-0.26953125,-0.66015625,7611.821,0.033203125,-0.021484375,0.001953125,7611.893,33.5,-6.25,-43.875
745,7621.414,-9.05078125,-0.375,-0.71875,7619.206,-0.00390625,-0.025390625,-0.015625,7621.424,32.6875,-5.9375,-40.375
746,7631.964,-9.171875,-0.53515625,-0.59375,7631.795,-0.04296875,-0.021484375,-0.0546875,7631.925,33.875,-6.0,-42.6875
747,7641.849999999999,-9.46484375,-0.8125,-0.5078125,7641.9980000000005,-0.046875,-0.0078125,-0.0546875,7641.968999999999,34.0,-5.75,-43.9375
748,7651.932000000001,-9.58203125,-0.98828125,-0.52734375,7651.947,-0.017578125,-0.02734375,0.00390625,7651.938,33.875,-5.375,-42.625
749,7660.965,-9.37890625,-0.890625,-0.5078125,7659.453,0.005859375,-0.021484375,0.0546875,7661.076,33.875,-5.375,-42.625
750,7671.925,-9.30859375,-0.6328125,-0.5859375,7671.8820000000005,0.005859375,-0.03515625,0.08203125,7671.731000000001,33.625,-6.0,-42.625
751,7682.209000000001,-9.0859375,-0.46875,-0.52734375,7681.9259999999995,-0.009765625,-0.03125,0.095703125,7681.918,33.4375,-5.5625,-43.1875
752,7696.53,-9.171875,-0.32421875,-0.46875,7694.2880000000005,0.001953125,-0.046875,0.02734375,7696.539,33.75,-6.25,-45.875
753,7706.531,-9.21875,-0.48046875,-0.421875,7704.468999999999,0.048828125,-0.068359375,-0.00390625,7706.339,33.4375,-5.75,-43.1875
754,7711.687000000001,-9.2265625,-0.53515625,-0.41015625,7711.692,0.07421875,-0.06640625,-0.025390625,7711.802,33.4375,-5.75,-43.1875
755,7724.257,-9.3828125,-0.69921875,-0.48828125,7721.8910000000005,0.076171875,-0.0390625,-0.013671875,7724.262000000001,32.9375,-5.9375,-40.4375
756,7734.136,-9.3671875,-0.77734375,-0.65234375,7731.838,0.06640625,-0.03515625,0.021484375,7734.1410000000005,33.3125,-6.4375,-44.5625
757,7744.042,-9.3046875,-0.69140625,-0.71875,7741.816,0.04296875,-0.037109375,0.048828125,7743.847,33.5,-6.25,-43.875
758,7753.908,-9.203125,-0.62109375,-0.71875,7751.88,-0.009765625,-0.0234375,0.060546875,7753.877,33.75,-6.25,-43.875
759,7763.651000000001,-9.21484375,-0.48046875,-0.71875,7761.825,-0.07421875,-0.01953125,0.046875,7763.674,33.875,-5.75,-42.6875
760,7771.722,-9.19921875,-0.4609375,-0.671875,7769.523999999999,-0.115234375,0.0078125,0.01953125,7771.836,33.3125,-6.1875,-41.8125
761,7781.736000000001,-9.09765625,-0.44921875,-0.2890625,7779.35,-0.134765625,-0.015625,0.015625,7781.744,33.3125,-6.1875,-41.8125
762,7793.512,-9.34375,-0.546875,0.0859375,7791.74,-0.0859375,-0.0078125,-0.00390625,7793.621,33.5,-6.0,-43.8125
763,7801.863,-9.3671875,-0.59375,0.1640625,7801.793,0.0078125,0.0,0.005859375,7801.918,33.375,-6.0,-42.5625
764,7811.862999999999,-9.3671875,-0.765625,-0.078125,7811.893,0.091796875,0.021484375,0.013671875,7811.804999999999,33.0625,-6.0,-41.75
765,7821.868,-9.390625,-0.8515625,-0.3828125,7822.018,0.1484375,0.01171875,0.046875,7821.789,33.625,-6.0,-44.5625
766,7833.075,-9.453125,-0.74609375,-0.7265625,7831.802,0.142578125,-0.00390625,0.072265625,7833.08,33.9375,-5.75,-43.3125
767,7841.907,-9.2890625,-0.546875,-0.73828125,7841.859,0.078125,-0.005859375,0.111328125,7841.89,32.875,-5.75,-42.4375
768,7854.363,-9.015625,-0.36328125,-0.74609375,7854.383000000001,-0.00390625,0.01171875,0.083984375,7854.527,33.6875,-5.75,-43.25
769,7864.2789999999995,-8.99609375,-0.296875,-0.671875,7864.1990000000005,-0.0546875,0.02734375,0.01953125,7864.2609999999995,34.1875,-6.0,-43.375
770,7874.269,-9.14453125,-0.36328125,-0.59375,7874.278,-0.068359375,0.015625,-0.015625,7874.4,33.875,-6.0,-42.6875
771,7881.856,-9.34765625,-0.46875,-0.48046875,7881.769,-0.048828125,0.00390625,-0.03125,7881.861,32.75,-5.8125,-43.625
772,7891.971,-9.37109375,-0.6015625,-0.5078125,7891.976,-0.05078125,0.001953125,-0.021484375,7891.993,33.6875,-6.1875,-43.25
773,7901.883,-9.296875,-0.66015625,-0.49609375,7901.688,-0.015625,-0.0078125,0.025390625,7901.7970000000005,33.6875,-6.1875,-43.25
774,7914.282,-9.12890625,-0.5546875,-0.65234375,7911.876,-0.00390625,-0.025390625,0.06640625,7914.287,33.125,-6.1875,-42.5
775,7924.084,-9.1328125,-0.41015625,-0.6796875,7922.038,-0.03515625,-0.0390625,0.068359375,7924.089999999999,33.125,-6.875,-42.5
776,7934.074,-9.16796875,-0.40234375,-0.66015625,7931.8099999999995,-0.0625,-0.05859375,0.0703125,7934.079,33.375,-6.25,-45.1875
777,7941.968,-9.20703125,-0.34375,-0.5859375,7939.349,-0.080078125,-0.0546875,0.060546875,7941.773,33.375,-6.25,-45.1875
778,7953.876,-9.12109375,-0.25,-0.19921875,7951.819,-0.11328125,-0.0078125,0.046875,7953.883,33.0625,-6.625,-41.75
779,7963.646,-9.09375,-0.19921875,-0.125,7961.856,-0.078125,0.00390625,-0.001953125,7963.7570000000005,33.8125,-6.0,-44.625
780,7971.559,-9.07421875,-0.23046875,-0.125,7969.361,-0.013671875,0.00390625,-0.048828125,7971.637000000001,33.75,-6.875,-43.9375
781,7981.871,-9.12890625,-0.3828125,-0.3046875,7981.804,0.04296875,0.03125,-0.08203125,7981.9259999999995,33.25,-6.25,-43.8125
782,7991.983,-9.296875,-0.7265625,-0.48828125,7991.968,0.046875,0.02734375,-0.099609375,7991.941,32.9375,-6.25,-43.0625
783,8004.343000000001,-9.546875,-0.95703125,-0.71875,8004.353,0.052734375,-0.001953125,-0.02734375,8004.327,33.5,-6.25,-43.875
784,8013.116,-9.51953125,-0.8984375,-0.70703125,8011.832,0.044921875,-0.015625,-0.001953125,8013.121999999999,33.75,-5.75,-43.875
785,8021.0650000000005,-9.4609375,-0.77734375,-0.640625,8019.5109999999995,0.033203125,-0.021484375,0.013671875,8021.159000000001,33.75,-5.75,-43.875
786,8031.781000000001,-9.29296875,-0.5859375,-0.48046875,8031.783,0.013671875,-0.03125,0.05859375,8031.7880000000005,33.0625,-6.0,-44.4375
787,8041.119999999999,-9.21484375,-0.421875,-0.5078125,8041.228,0.00390625,-0.01953125,0.0546875,8041.035000000001,33.0625,-6.0,-44.4375
788,8054.344,-9.09765625,-0.44140625,-0.5546875,8054.365000000001,-0.017578125,-0.009765625,0.04296875,8054.280000000001,33.6875,-6.25,-45.25
789,8064.436000000001,-9.20703125,-0.44921875,-0.57421875,8064.3949999999995,-0.01953125,-0.015625,0.0078125,8064.327,33.5,-5.8125,-45.8125
790,8074.379000000001,-9.2265625,-0.44921875,-0.57421875,8074.386,-0.015625,-0.037109375,0.0,8074.564,33.375,-6.25,-45.1875
791,8084.267000000001,-9.2109375,-0.46875,-0.546875,8081.884000000001,-0.01953125,-0.060546875,0.015625,8084.272999999999,33.5,-5.8125,-45.8125
792,8094.277,-9.2421875,-0.46875,-0.421875,8091.872,-0.05078125,-0.04296875,0.015625,8094.282,33.5,-6.25,-43.875
793,8104.122,-9.22265625,-0.46875,-0.4296875,8101.873,-0.0625,-0.048828125,0.029296875,8104.128,32.6875,-6.4375,-43.0
794,8113.918999999999,-9.21875,-0.4296875,-0.31640625,8111.884,-0.046875,-0.0546875,0.01953125,8113.924000000001,33.5625,-6.25,-44.625
795,8121.781999999999,-9.25390625,-0.44140625,-0.27734375,8121.85,0.00390625,-0.05859375,0.00390625,8121.924999999999,33.5625,-6.25,-44.625
796,8133.775999999999,-9.26171875,-0.49609375,-0.23046875,8132.02,0.015625,-0.03125,0.013671875,8133.687,32.9375,-6.0,-43.0625
797,8143.6759999999995,-9.203125,-0.49609375,-0.26953125,8141.818000000001,0.041015625,-0.017578125,0.015625,8143.588,32.75,-6.25,-43.625
798,8151.887000000001,-9.28515625,-0.4609375,-0.375,8151.908,0.0625,0.0078125,-0.001953125,8151.977000000001,33.125,-6.5,-45.125
799,8162.058,-9.24609375,-0.44140625,-0.49609375,8161.889999999999,0.072265625,-0.0078125,0.017578125,8162.058,33.5625,-5.375,-43.8125
800,8171.827,-9.19921875,-0.4296875,-0.5859375,8171.896000000001,0.072265625,-0.001953125,0.005859375,8171.822000000001,33.4375,-6.1875,-43.1875
801,8181.874000000001,-9.17578125,-0.48046875,-0.70703125,8181.936000000001,0.015625,0.015625,0.00390625,8181.982,34.125,-5.75,-42.75
802,8192.072,-9.25,-0.4609375,-0.71875,8191.857000000001,-0.033203125,0.01171875,0.001953125,8191.8009999999995,33.1875,-6.1875,-43.125
803,8201.938,-9.2421875,-0.44921875,-0.6796875,8201.846,-0.087890625,0.001953125,-0.00390625,8201.940999999999,33.1875,-6.0,-43.125
804,8211.147,-9.18359375,-0.48046875,-0.48046875,8209.33,-0.109375,0.001953125,-0.00390625,8210.95,33.1875,-6.0,-43.125
805,8221.784,-9.2265625,-0.48046875,-0.2890625,8221.895,-0.103515625,0.0078125,-0.013671875,8221.791,33.1875,-6.4375,-43.125
806,8231.992,-9.28125,-0.5546875,-0.09765625,8231.903,-0.06640625,0.005859375,-0.009765625,8231.999,33.6875,-6.1875,-43.25
807,8241.923999999999,-9.375,-0.6015625,-0.0859375,8241.932,0.021484375,0.001953125,0.013671875,8242.126,33.6875,-6.1875,-43.25
808,8254.388,-9.3359375,-0.546875,-0.31640625,8254.395,0.064453125,0.00390625,0.0390625,8254.573,33.5,-6.4375,-41.875
809,8261.953,-9.33203125,-0.49609375,-0.49609375,8261.988000000001,0.080078125,-0.0078125,0.029296875,8261.858999999999,34.0,-5.125,-43.9375
810,8271.800000000001,-9.21875,-0.44921875,-0.59375,8271.692,0.07421875,-0.005859375,0.02734375,8271.805,33.375,-6.0,-45.1875
811,8284.142,-9.1171875,-0.32421875,-0.6796875,8281.934,0.044921875,-0.01171875,0.033203125,8284.147,33.8125,-5.8125,-44.625
812,8293.909,-9.1640625,-0.36328125,-0.61328125,8291.905,-0.001953125,0.005859375,-0.015625,8293.913999999999,33.1875,-5.75,-43.125
813,8303.791000000001,-9.2578125,-0.5078125,-0.5078125,8301.782,-0.025390625,-0.013671875,-0.048828125,8303.796999999999,34.25,-6.1875,-44.0
814,8311.975999999999,-9.3046875,-0.6796875,-0.546875,8309.312,-0.009765625,-0.015625,-0.046875,8311.887999999999,33.3125,-6.4375,-44.5625
815,8321.882,-9.33984375,-0.78515625,-0.44140625,8319.432,-0.017578125,-0.013671875,-0.005859375,8321.687,33.3125,-6.4375,-44.5625
816,8333.406,-9.3828125,-0.70703125,-0.41015625,8331.932999999999,-0.001953125,-0.0078125,0.068359375,8333.517,34.1875,-6.1875,-43.375
817,8342.059000000001,-9.26171875,-0.515625,-0.36328125,8341.981,0.01171875,-0.009765625,0.0625,8342.003,31.9375,-6.4375,-42.8125
818,8352.043,-9.109375,-0.32421875,-0.39453125,8352.074999999999,0.033203125,-0.015625,0.064453125,8352.098,33.5,-6.875,-43.875
819,8363.107,-9.0546875,-0.23828125,-0.5078125,8361.946,0.021484375,0.001953125,0.03125,8363.117,33.3125,-6.4375,-44.5625
820,8373.187,-9.11328125,-0.27734375,-0.59375,8372.037,0.00390625,0.02734375,0.015625,8372.992999999999,32.4375,-5.8125,-42.9375
821,8381.023000000001,-9.140625,-0.40234375,-0.6015625,8379.725,-0.017578125,0.037109375,-0.015625,8381.133,32.4375,-5.8125,-42.9375
822,8392.037,-9.24609375,-0.5078125,-0.65234375,8391.996000000001,-0.05078125,0.037109375,-0.013671875,8391.842999999999,33.125,-6.25,-45.125
823,8401.205,-9.42578125,-0.5859375,-0.6328125,8401.109999999999,-0.07421875,0.0234375,-0.013671875,8401.116,33.125,-6.25,-45.125
824,8414.495,-9.34375,-0.671875,-0.53515625,8414.503,-0.078125,0.0078125,0.025390625,8414.425,33.5625,-6.25,-44.625
825,8422.302,-9.41796875,-0.59375,-0.44140625,8422.018,-0.07421875,0.0,0.0390625,8422.007000000001,32.75,-6.6875,-43.6875
826,8431.981,-9.3125,-0.46875,-0.3046875,8431.711,-0.041015625,-0.01171875,0.072265625,8431.885,34.0625,-5.625,-44.6875
827,8441.965,-9.16015625,-0.40234375,-0.26953125,8441.97,0.009765625,-0.01953125,0.0546875,8441.879,34.0625,-5.625,-44.6875
828,8454.151,-9.13671875,-0.31640625,-0.40234375,8451.971,0.033203125,-0.02734375,0.037109375,8454.16,33.9375,-6.4375,-43.3125
829,8464.162,-9.171875,-0.3359375,-0.44140625,8461.937,0.037109375,-0.01953125,0.0234375,8463.967,33.0,-6.4375,-41.125
830,8474.107,-9.203125,-0.39453125,-0.52734375,8471.883,0.02734375,-0.025390625,-0.02734375,8474.112,33.75,-6.4375,-43.9375
831,8481.969,-9.2890625,-0.4296875,-0.66015625,8481.973,0.0078125,-0.029296875,-0.001953125,8482.153999999999,33.75,-6.4375,-43.9375
832,8493.833999999999,-9.3828125,-0.53515625,-0.5859375,8491.863000000001,-0.017578125,-0.021484375,-0.009765625,8493.946,33.6875,-6.1875,-43.25
833,8503.719000000001,-9.375,-0.5546875,-0.52734375,8501.948,-0.029296875,0.0,0.0078125,8503.83,33.875,-6.25,-45.3125
834,8511.903999999999,-9.30078125,-0.4609375,-0.36328125,8511.927,-0.02734375,-0.021484375,0.029296875,8511.995,33.9375,-6.1875,-43.3125
835,8521.938,-9.17578125,-0.35546875,-0.23828125,8521.872,-0.021484375,0.00390625,0.03125,8521.94,33.0,-6.25,-43.6875
836,8532.082,-9.09375,-0.3046875,-0.25,8531.914999999999,-0.015625,0.03125,0.015625,8532.061,33.5625,-6.25,-44.625
837,8541.819,-9.140625,-0.36328125,-0.27734375,8542.008,0.00390625,0.033203125,-0.015625,8542.03,32.8125,-6.0,-44.375
838,8551.249,-9.25390625,-0.421875,-0.5078125,8549.502999999999,0.017578125,0.03125,-0.0078125,8551.278999999999,32.875,-6.0625,-45.0625
839,8564.441,-9.28515625,-0.53515625,-0.66015625,8564.464,0.005859375,0.0078125,-0.01953125,8564.557,33.6875,-5.375,-45.1875
840,8574.366,-9.42578125,-0.57421875,-0.53515625,8574.491,-0.01171875,-0.037109375,-0.01171875,8574.493,34.0625,-6.875,-44.75
841,8584.418,-9.43359375,-0.62109375,-0.48828125,8584.225999999999,0.013671875,-0.0625,-0.001953125,8584.331,33.0,-5.8125,-43.6875
842,8592.015,-9.33203125,-0.6015625,-0.46875,8592.126,0.033203125,-0.0625,0.025390625,8592.021,33.875,-6.4375,-45.3125
843,8601.972,-9.33203125,-0.59375,-0.3828125,8601.98,0.017578125,-0.05859375,0.025390625,8601.955,33.875,-6.4375,-45.3125
844,8614.394,-9.296875,-0.44140625,-0.3828125,8614.301,0.03515625,-0.052734375,0.056640625,8614.623,33.4375,-6.875,-43.25
845,8624.548,-9.25390625,-0.375,-0.48046875,8621.786,0.03125,-0.044921875,0.06640625,8624.356,33.125,-7.0625,-42.5
846,8634.292,-9.125,-0.32421875,-0.5078125,8631.914999999999,0.02734375,-0.0078125,0.064453125,8634.301000000001,33.875,-6.1875,-42.6875
847,8644.34,-9.16796875,-0.3359375,-0.59375,8642.098,-0.001953125,0.013671875,0.052734375,8644.151000000002,33.8125,-6.0,-44.625
848,8654.036,-9.1640625,-0.3046875,-0.52734375,8652.011,-0.029296875,0.013671875,0.05859375,8654.042000000001,33.125,-6.875,-42.5
849,8664.066,-9.19921875,-0.296875,-0.44140625,8662.042,-0.02734375,0.00390625,0.029296875,8664.071,33.0,-6.6875,-43.75
850,8671.823,-9.1640625,-0.26953125,-0.36328125,8669.596,-0.021484375,-0.005859375,0.001953125,8671.934000000001,33.0,-6.4375,-43.75
851,8681.818,-9.13671875,-0.23828125,-0.23828125,8679.478,-0.00390625,0.001953125,-0.00390625,8681.824,33.0,-6.4375,-43.75
852,8693.616,-9.28515625,-0.32421875,-0.26953125,8692.046,0.01953125,0.005859375,-0.044921875,8693.727,33.125,-7.0625,-45.125
853,8704.514,-9.30859375,-0.53515625,-0.48828125,8704.42,0.017578125,0.009765625,-0.041015625,8704.563,33.375,-6.6875,-45.1875
854,8711.429,-9.44140625,-0.6328125,-0.59375,8709.444,0.017578125,0.01953125,-0.021484375,8711.437,33.375,-6.6875,-45.1875
855,8724.419,-9.43359375,-0.6328125,-0.61328125,8724.443000000001,-0.01171875,-0.015625,0.044921875,8724.511,32.75,-5.625,-43.625
856,8734.474,-9.4765625,-0.53515625,-0.6015625,8734.439999999999,-0.0390625,-0.015625,0.056640625,8734.61,33.3125,-6.25,-44.5
857,8744.944,-9.28125,-0.46875,-0.515625,8744.623000000001,-0.052734375,-0.04296875,0.0546875,8744.656,33.625,-7.0625,-43.3125
858,8754.463,-9.21875,-0.3359375,-0.41015625,8754.424,-0.041015625,-0.033203125,0.041015625,8754.428,33.8125,-6.875,-44.6875
859,8764.55,-9.19921875,-0.3828125,-0.3359375,8764.509,-0.0390625,-0.001953125,0.01171875,8764.521999999999,33.875,-5.8125,-45.25
860,8774.426,-9.21875,-0.44921875,-0.296875,8774.387,-0.0390625,0.0078125,-0.0078125,8774.414999999999,33.375,-6.875,-42.5625
861,8784.537,-9.31640625,-0.5078125,-0.31640625,8784.498,-0.015625,0.00390625,0.001953125,8784.425000000001,32.8125,-6.25,-44.375
862,8794.545,-9.38671875,-0.61328125,-0.36328125,8794.606,0.0078125,0.0,0.03125,8794.733,32.75,-6.4375,-43.6875
863,8804.392,-9.3125,-0.5078125,-0.421875,8802.016,0.005859375,-0.01171875,0.05859375,8804.401,32.9375,-6.25,-45.8125
864,8814.319,-9.1953125,-0.3828125,-0.4296875,8811.902,0.00390625,-0.01171875,0.072265625,8814.387,33.625,-6.0,-44.5625
865,8824.212,-9.109375,-0.26953125,-0.4296875,8822.013,-0.00390625,0.001953125,0.078125,8824.32,33.0625,-6.875,-44.5
866,8834.104,-9.05078125,-0.19921875,-0.4296875,8831.969000000001,0.01171875,0.0,0.046875,8834.113000000001,34.0625,-6.875,-44.75
867,8843.992999999999,-9.078125,-0.2109375,-0.44140625,8842.038,0.009765625,0.001953125,0.0234375,8843.999,32.3125,-6.9375,-44.3125
868,8853.937,-9.17578125,-0.2578125,-0.44921875,8852.043,-0.013671875,0.015625,0.029296875,8853.943,33.375,-6.25,-45.1875
869,8861.773,-9.2109375,-0.2578125,-0.4296875,8859.502,-0.025390625,0.041015625,0.025390625,8861.779,33.375,-6.25,-45.1875
870,8874.618999999999,-9.2578125,-0.32421875,-0.5078125,8874.545,-0.0234375,0.01953125,0.005859375,8874.622000000001,33.375,-6.625,-42.5625
871,8881.782,-9.2421875,-0.3828125,-0.546875,8879.597,-0.025390625,0.021484375,0.005859375,8881.588000000002,33.375,-6.625,-42.5625
872,8891.237000000001,-9.26171875,-0.375,-0.59375,8889.429,-0.046875,0.021484375,0.009765625,8891.244,33.375,-6.625,-42.5625
873,8904.477,-9.23046875,-0.35546875,-0.4609375,8904.297,-0.06640625,0.0390625,0.015625,8904.37,33.5625,-6.6875,-44.625
874,8914.519,-9.1953125,-0.34375,-0.36328125,8914.487,-0.04296875,0.015625,0.01171875,8914.459,32.625,-6.4375,-42.375
875,8924.966,-9.2578125,-0.35546875,-0.34375,8924.547999999999,-0.009765625,0.005859375,0.0078125,8924.474999999999,32.875,-6.25,-45.0625
876,8934.592,-9.21484375,-0.39453125,-0.3359375,8934.6,-0.00390625,0.005859375,0.01171875,8934.612,33.75,-6.1875,-43.9375
877,8944.571,-9.265625,-0.39453125,-0.39453125,8944.528999999999,0.009765625,0.01171875,0.001953125,8944.545,33.0,-6.0,-43.6875
878,8954.653,-9.26171875,-0.421875,-0.546875,8954.612,0.021484375,0.00390625,0.021484375,8954.537,32.8125,-6.6875,-44.4375
879,8964.561,-9.25390625,-0.375,-0.5546875,8964.522,0.00390625,-0.013671875,0.05078125,8964.448,33.25,-6.0,-43.75
880,8974.551,-9.1171875,-0.296875,-0.6015625,8974.514,-0.013671875,0.013671875,0.029296875,8974.439999999999,32.625,-6.6875,-43.0
881,8984.445,-9.0859375,-0.18359375,-0.5546875,8982.086000000001,-0.041015625,0.00390625,0.025390625,8984.451,33.4375,-6.625,-43.25
882,8994.347,-9.046875,-0.18359375,-0.49609375,8991.965,-0.044921875,-0.001953125,0.005859375,8994.315,33.625,-7.0625,-43.3125
883,9004.4,-9.09765625,-0.31640625,-0.36328125,9002.061,-0.0390625,-0.017578125,-0.037109375,9004.307999999999,32.75,-6.6875,-43.6875
884,9014.262999999999,-9.375,-0.41015625,-0.32421875,9012.063,-0.02734375,-0.01171875,-0.0625,9014.354000000001,33.375,-6.4375,-42.5625
885,9024.213,-9.4140625,-0.5078125,-0.48046875,9021.868,-0.0078125,-0.005859375,-0.033203125,9024.119,33.0625,-7.0625,-44.5
886,9034.146,-9.3359375,-0.57421875,-0.46875,9032.105,0.017578125,-0.009765625,0.01953125,9033.952,33.8125,-6.875,-44.6875
887,9043.866,-9.35546875,-0.44140625,-0.53515625,9041.865,0.017578125,-0.0234375,0.029296875,9043.869,33.625,-6.4375,-45.25
888,9054.411,-9.2265625,-0.31640625,-0.57421875,9054.52,-0.01953125,-0.01953125,0.03515625,9054.615,33.375,-7.0625,-45.1875
889,9064.469000000001,-9.1328125,-0.2578125,-0.53515625,9064.394,-0.009765625,-0.0078125,0.021484375,9064.469000000001,34.0,-6.4375,-44.0
890,9071.550000000001,-9.1171875,-0.19921875,-0.421875,9069.598,-0.0078125,-0.013671875,0.00390625,9071.555999999999,34.0,-6.4375,-44.0
891,9084.564,-9.2578125,-0.296875,-0.4296875,9084.568000000001,-0.021484375,-0.029296875,-0.03515625,9084.639,32.9375,-6.25,-43.0625
892,9094.802,-9.33203125,-0.4296875,-0.4296875,9094.384,-0.025390625,-0.037109375,-0.03515625,9094.511,32.9375,-6.9375,-45.8125
893,9104.556,-9.39453125,-0.4609375,-0.35546875,9104.507,-0.0078125,-0.04296875,-0.02734375,9104.475,32.6875,-6.4375,-43.0
894,9114.727,-9.41015625,-0.546875,-0.31640625,9114.659,0.015625,-0.041015625,0.0,9114.628,32.75,-6.0,-43.625
895,9124.502,-9.40625,-0.44140625,-0.2890625,9124.541000000001,0.025390625,-0.044921875,-0.001953125,9124.585,32.6875,-6.25,-43.0
896,9134.717999999999,-9.30078125,-0.3359375,-0.39453125,9134.493,0.025390625,-0.01171875,0.009765625,9134.503999999999,32.6875,-6.875,-43.6875
897,9144.466,-9.1953125,-0.3359375,-0.44140625,9144.439999999999,-0.00390625,-0.01171875,0.00390625,9144.454,32.5,-6.5,-46.3125
898,9154.578000000001,-9.21875,-0.35546875,-0.4609375,9154.535,-0.01171875,-0.0234375,-0.001953125,9154.507000000001,33.25,-6.6875,-43.8125
899,9164.538,-9.2265625,-0.375,-0.4296875,9164.6,-0.015625,-0.03125,-0.013671875,9164.887999999999,33.0,-6.6875,-43.75
900,9174.414999999999,-9.33984375,-0.48046875,-0.34375,9172.07,-0.02734375,-0.029296875,-0.013671875,9174.42,33.0625,-6.875,-44.5
901,9184.318,-9.35546875,-0.44921875,-0.27734375,9182.038999999999,-0.0234375,-0.0234375,-0.00390625,9184.386,33.6875,-6.1875,-43.25
902,9194.268,-9.28125,-0.4609375,-0.2890625,9192.09,-0.01953125,-0.0078125,0.009765625,9194.163,33.125,-6.6875,-45.125
903,9204.134,-9.35546875,-0.515625,-0.4296875,9201.905999999999,-0.005859375,-0.00390625,0.013671875,9204.140000000001,33.0,-6.25,-43.6875
904,9214.036,-9.34765625,-0.41015625,-0.46875,9212.01,-0.015625,-0.01171875,0.041015625,9214.038999999999,33.375,-6.4375,-42.5625
905,9223.931,-9.18359375,-0.3359375,-0.41015625,9222.056,-0.0234375,-0.021484375,0.048828125,9223.94,32.4375,-6.875,-43.625
906,9233.794,-9.19921875,-0.25,-0.3359375,9232.079,-0.0390625,-0.01171875,0.03125,9233.800000000001,33.5625,-6.6875,-44.625
907,9243.711,-9.08984375,-0.19140625,-0.31640625,9242.02,-0.01953125,-0.013671875,0.015625,9243.717,33.25,-6.6875,-43.8125
908,9254.379,-9.20703125,-0.3046875,-0.26953125,9254.488,0.009765625,-0.0234375,-0.021484375,9254.453,33.9375,-6.4375,-43.3125
909,9264.564999999999,-9.3515625,-0.4296875,-0.3828125,9264.517,0.0078125,-0.021484375,-0.015625,9264.504,34.125,-6.25,-45.375
910,9274.621,-9.37890625,-0.44140625,-0.4609375,9274.589,0.0078125,-0.017578125,0.013671875,9274.559,33.1875,-6.5,-45.875
911,9284.571,-9.296875,-0.375,-0.4296875,9284.522,0.01171875,-0.025390625,0.01953125,9284.492,32.9375,-6.6875,-43.0625
912,9294.592,-9.23046875,-0.3046875,-0.46875,9294.524,0.01953125,-0.048828125,0.025390625,9294.694,32.5625,-6.5,-44.375
913,9304.798999999999,-9.13671875,-0.25,-0.34375,9304.608,0.02734375,-0.0390625,0.0078125,9304.662,33.25,-7.0625,-43.8125
914,9314.638,-9.125,-0.19140625,-0.27734375,9314.6,0.017578125,-0.0234375,-0.009765625,9314.610999999999,33.3125,-6.4375,-44.5625
915,9324.655999999999,-9.125,-0.26953125,-0.26953125,9324.615,0.03515625,-0.021484375,-0.015625,9324.543,32.5625,-6.875,-45.0
916,9334.596,-9.21875,-0.3359375,-0.375,9334.553,0.029296875,0.001953125,-0.017578125,9334.525,33.4375,-6.6875,-45.9375
917,9344.605,-9.24609375,-0.3828125,-0.48828125,9344.575,0.017578125,0.015625,0.005859375,9344.521999999999,32.8125,-6.6875,-44.4375
918,9354.473,-9.19921875,-0.44921875,-0.6015625,9351.98,0.005859375,0.0078125,0.005859375,9354.447,32.875,-6.875,-45.0625
919,9364.224999999999,-9.22265625,-0.35546875,-0.5859375,9361.911,-0.021484375,0.0078125,0.029296875,9364.368,32.8125,-6.4375,-44.4375
920,9374.295,-9.26953125,-0.25,-0.52734375,9372.056,-0.0390625,0.0234375,0.029296875,9374.302,33.75,-6.8125,-43.9375
921,9384.387999999999,-9.109375,-0.171875,-0.41015625,9384.52,-0.02734375,-0.01171875,-0.001953125,9384.589,33.125,-7.0625,-45.125
922,9393.922,-9.0390625,-0.09765625,-0.35546875,9391.894,-0.029296875,-0.01953125,-0.01953125,9393.934,32.9375,-6.5,-45.8125
923,9401.971,-9.13671875,-0.0859375,-0.3359375,9399.552,-0.033203125,-0.015625,-0.05078125,9402.048999999999,33.3125,-6.6875,-44.5625
924,9411.994,-9.2109375,-0.23046875,-0.25,9409.504,-0.03515625,-0.0078125,-0.103515625,9411.918,33.6875,-6.25,-45.25
925,9422.086,-9.38671875,-0.44140625,-0.19140625,9422.103,0.00390625,0.0,-0.115234375,9421.975,32.5625,-6.875,-45.0
926,9433.486,-9.46484375,-0.84375,-0.36328125,9432.25,0.033203125,0.00390625,-0.068359375,9433.577,33.375,-6.0,-45.1875
927,9443.53,-9.7265625,-0.8515625,-0.56640625,9442.049,0.03125,0.001953125,0.005859375,9443.533000000001,32.8125,-6.4375,-44.4375
928,9453.463,-9.59375,-0.65234375,-0.48046875,9452.067,0.029296875,-0.013671875,0.060546875,9453.469000000001,32.9375,-6.9375,-45.8125
929,9463.448,-9.34765625,-0.41015625,-0.48046875,9462.199999999999,0.015625,-0.03515625,0.076171875,9463.358,33.3125,-6.875,-44.5625
930,9471.992999999999,-9.18359375,-0.21875,-0.375,9472.092,0.017578125,-0.0390625,0.080078125,9471.899000000001,33.125,-6.25,-45.125
931,9484.535,-9.109375,-0.09765625,-0.21875,9484.54,0.037109375,-0.03515625,0.015625,9484.648,32.625,-6.875,-43.0625
932,9494.551,-9.09375,-0.14453125,-0.34375,9494.439,0.046875,-0.02734375,-0.017578125,9494.713000000002,32.875,-6.25,-45.0625
933,9504.685,-9.1328125,-0.32421875,-0.4609375,9504.641,0.013671875,0.0078125,-0.02734375,9504.572,33.5,-6.875,-43.875
934,9514.623,-9.4140625,-0.4609375,-0.546875,9514.382,-0.021484375,0.0078125,-0.015625,9514.51,33.3125,-6.4375,-44.5625
935,9524.564,-9.421875,-0.48046875,-0.52734375,9524.521999999999,-0.052734375,-0.015625,0.001953125,9524.65,33.0625,-6.4375,-44.5
936,9534.704,-9.3515625,-0.4296875,-0.296875,9531.942000000001,-0.064453125,-0.01171875,0.037109375,9534.509,32.875,-6.625,-42.4375
937,9544.39,-9.125,-0.31640625,-0.15234375,9542.075,-0.0546875,0.0,0.048828125,9544.462,33.625,-6.4375,-45.25
938,9554.445,-9.140625,-0.2578125,0.01953125,9552.005,-0.03515625,0.001953125,0.037109375,9554.451000000001,32.75,-6.25,-46.375
939,9564.356,-9.22265625,-0.2109375,0.0078125,9562.118999999999,0.02734375,0.013671875,0.02734375,9564.362,32.75,-6.0,-43.625
940,9574.08,-9.08984375,-0.18359375,-0.2890625,9572.243,0.0546875,0.03125,-0.0078125,9574.086,32.125,-6.25,-44.875
941,9584.12,-9.1328125,-0.296875,-0.48828125,9582.069000000001,0.044921875,0.037109375,-0.00390625,9584.03,33.5625,-7.3125,-44.625
