,Acc_ts,Acc_x,Acc_y,Acc_z,Gyro_ts,Gyro_x,Gyro_y,Gyro_z,Mag_ts,Mag_x,Mag_y,Mag_z
0,0.0,1.8671875,-0.25,-9.8359375,1.641,0.0,0.001953125,-0.001953125,-4.463,-9.8125,35.625,22.125
1,9.887,1.9140625,-0.23828125,-9.859375,11.574,0.0,0.001953125,-0.001953125,5.316000000000001,-10.125,36.3125,23.75
2,23.581,1.87890625,-0.2578125,-9.81640625,21.638,0.0,0.001953125,0.0,23.39,-9.4375,36.6875,21.3125
3,33.444,1.953125,-0.23046875,-9.859375,31.703000000000003,0.0,0.00390625,0.001953125,33.355000000000004,-9.8125,36.6875,22.9375
4,43.145,1.90625,-0.23046875,-9.8203125,41.603,0.0,0.00390625,0.001953125,43.052,-9.8125,36.0,23.3125
5,53.041,1.89453125,-0.27734375,-9.8125,51.704,0.0,0.001953125,0.0,52.948,-9.8125,36.0,22.5
6,62.916,1.98046875,-0.23828125,-9.80078125,61.574,0.0,0.001953125,0.0,63.02199999999999,-9.8125,36.375,22.5
7,72.76,1.84765625,-0.25,-9.890625,71.616,0.0,0.001953125,0.0,72.86800000000001,-10.5,35.625,22.125
8,82.645,1.9921875,-0.23828125,-9.82421875,81.307,-0.001953125,0.0,-0.001953125,82.755,-9.4375,35.25,22.9375
9,92.48,1.92578125,-0.19921875,-9.82421875,91.34,0.0,0.0,0.0,92.59100000000001,-9.4375,36.375,22.125
10,102.348,1.88671875,-0.25,-9.85546875,101.60600000000001,0.0,-0.001953125,0.0,102.458,-9.8125,35.625,22.9375
11,112.36,1.9453125,-0.23828125,-9.8515625,111.526,0.0,-0.001953125,0.0,112.467,-9.4375,35.625,22.9375
12,122.203,1.87890625,-0.25,-9.8359375,121.686,0.0,-0.001953125,0.0,122.209,-10.125,36.6875,22.9375
13,132.101,1.93359375,-0.2578125,-9.8046875,131.585,0.001953125,-0.005859375,0.0,132.108,-10.125,36.375,23.3125
14,142.07600000000002,1.92578125,-0.23046875,-9.83984375,141.376,0.0,-0.005859375,0.0,141.887,-10.125,36.0,22.5625
15,152.032,1.89453125,-0.23828125,-9.8359375,151.51500000000001,0.0,-0.001953125,0.001953125,151.945,-9.8125,36.375,21.75
16,161.833,1.90625,-0.26953125,-9.79296875,161.828,0.0,0.0,0.0,161.726,-9.4375,36.0,22.125
17,171.88400000000001,1.89453125,-0.23828125,-9.77734375,171.83399999999997,0.0,0.0,0.0,171.891,-10.125,35.625,22.9375
18,183.562,1.88671875,-0.23046875,-9.875,181.667,0.0,0.0,0.0,183.572,-10.125,36.375,21.75
19,193.27,1.92578125,-0.21875,-9.80859375,191.886,0.0,0.0,0.0,193.38400000000001,-9.4375,35.25,21.75
20,203.124,1.90625,-0.19921875,-9.8515625,201.739,0.0,0.0,0.0,203.233,-10.5,36.6875,22.5625
21,212.98,1.93359375,-0.23828125,-9.79296875,211.59900000000002,0.001953125,0.0,0.0,213.088,-10.125,37.0625,23.375
22,222.958,1.9453125,-0.21875,-9.77734375,221.882,0.001953125,0.0,0.0,222.965,-10.5,36.375,22.5625
23,232.936,1.88671875,-0.26953125,-9.83984375,231.553,0.001953125,0.001953125,0.0,233.043,-10.125,36.0,22.125
24,242.728,1.89453125,-0.23046875,-9.8046875,241.447,0.001953125,0.001953125,0.0,242.737,-9.0625,36.6875,22.5625
25,252.76999999999998,1.89453125,-0.19921875,-9.80859375,251.39000000000001,0.001953125,0.001953125,0.0,252.88,-9.4375,35.25,22.125
26,262.698,1.92578125,-0.21875,-9.81640625,261.51000000000005,0.001953125,0.00390625,0.001953125,262.767,-10.875,35.625,23.375
27,272.332,1.9140625,-0.2578125,-9.8046875,271.569,0.0,0.00390625,0.001953125,272.438,-9.4375,36.375,22.5625
28,282.276,1.90625,-0.2578125,-9.80859375,281.486,0.0,0.001953125,0.001953125,282.283,-9.8125,36.375,22.9375
29,292.317,1.89453125,-0.21875,-9.84765625,291.456,0.0,0.001953125,0.001953125,292.223,-9.8125,36.6875,23.375
30,302.125,1.88671875,-0.25,-9.83984375,301.596,0.001953125,0.001953125,0.001953125,302.156,-9.0625,36.0,22.9375
31,311.953,1.9140625,-0.25,-9.84375,311.35699999999997,0.001953125,0.0,0.0,311.879,-9.4375,36.0,20.9375
32,322.036,1.87890625,-0.2578125,-9.8203125,321.621,0.001953125,0.0,-0.001953125,322.04,-10.125,36.6875,22.9375
33,331.71299999999997,1.92578125,-0.25,-9.765625,331.589,0.001953125,0.0,-0.001953125,331.721,-9.0625,36.375,22.9375
34,343.454,1.953125,-0.21875,-9.79296875,341.812,0.001953125,-0.001953125,0.0,343.461,-9.4375,36.6875,22.5625
35,353.466,1.92578125,-0.2109375,-9.8046875,351.81600000000003,0.0,0.0,-0.001953125,353.572,-10.125,35.625,21.75
36,363.38599999999997,1.90625,-0.2578125,-9.8203125,361.736,0.0,0.0,-0.001953125,363.49399999999997,-10.125,36.375,23.375
37,373.156,1.9921875,-0.23046875,-9.8359375,371.714,-0.001953125,0.0,-0.001953125,373.264,-9.8125,37.0625,22.125
38,383.19,1.97265625,-0.19921875,-9.8359375,381.741,-0.001953125,0.0,0.0,383.298,-8.6875,35.625,22.125
39,392.962,1.859375,-0.27734375,-9.8359375,391.81,-0.001953125,0.0,0.0,392.969,-9.8125,36.0,22.125
40,402.944,1.87890625,-0.2578125,-9.76171875,401.497,-0.001953125,0.0,0.0,403.05400000000003,-9.8125,36.6875,21.75
41,412.744,1.90625,-0.2578125,-9.83984375,411.394,-0.001953125,0.0,-0.001953125,412.75,-9.4375,35.25,22.5625
42,422.663,1.97265625,-0.2109375,-9.8125,421.312,-0.001953125,0.001953125,0.0,422.67,-9.4375,36.6875,22.5625
43,432.539,1.88671875,-0.25,-9.8203125,431.49399999999997,0.0,0.0,0.0,432.44899999999996,-10.5,34.875,21.375
44,442.407,1.89453125,-0.23046875,-9.77734375,441.38300000000004,0.0,0.0,0.001953125,442.51800000000003,-10.5,35.625,22.125
45,452.316,1.8671875,-0.2578125,-9.80859375,451.61,0.0,-0.001953125,0.001953125,452.325,-9.4375,36.375,22.9375
46,462.25,1.89453125,-0.23828125,-9.80078125,461.647,0.0,0.0,0.0,462.25699999999995,-9.4375,36.375,23.375
47,472.147,1.92578125,-0.23046875,-9.7734375,471.747,-0.001953125,0.0,0.0,472.157,-9.8125,35.625,22.125
48,481.976,1.9140625,-0.26953125,-9.7890625,481.474,0.0,0.0,0.001953125,481.889,-9.4375,35.625,23.375
49,491.831,1.88671875,-0.21875,-9.8515625,491.78,-0.001953125,0.0,-0.001953125,491.83500000000004,-9.8125,36.6875,22.9375
50,501.79799999999994,1.89453125,-0.23046875,-9.8046875,501.96799999999996,-0.001953125,0.0,-0.001953125,501.90599999999995,-9.8125,36.6875,22.5625
51,513.626,1.89453125,-0.23046875,-9.82421875,511.87000000000006,-0.001953125,0.00390625,0.0,513.737,-10.125,36.0,22.9375
52,523.314,1.9453125,-0.23046875,-9.8515625,521.848,0.0,0.005859375,0.0,523.42,-9.0625,36.375,22.125
53,533.1550000000001,1.87890625,-0.2890625,-9.8046875,531.891,0.0,0.005859375,0.0,533.264,-10.1875,36.0,22.125
54,543.1669999999999,1.88671875,-0.2578125,-9.79296875,541.903,0.0,0.001953125,0.0,543.274,-9.4375,35.625,22.1875
55,553.045,1.87890625,-0.25,-9.8125,551.9810000000001,0.001953125,0.001953125,0.0,553.1519999999999,-10.5,35.625,22.1875
56,562.883,1.96484375,-0.27734375,-9.8125,561.821,0.001953125,0.0,-0.001953125,562.9920000000001,-10.5,36.6875,22.9375
57,572.7959999999999,1.89453125,-0.23828125,-9.80078125,571.731,0.0,-0.001953125,0.0,572.9060000000001,-9.8125,36.0,22.5625
58,582.658,1.89453125,-0.26953125,-9.796875,581.594,0.0,-0.001953125,0.0,582.767,-9.8125,37.0625,22.5625
59,592.606,1.93359375,-0.2109375,-9.85546875,591.542,0.0,-0.005859375,-0.001953125,592.7130000000001,-9.8125,36.0,22.5625
60,602.4770000000001,1.8671875,-0.19921875,-9.8125,601.636,0.0,-0.005859375,-0.001953125,602.583,-9.8125,35.625,21.75
61,612.34,1.90625,-0.2109375,-9.765625,611.62,0.0,-0.005859375,0.0,612.347,-9.4375,36.6875,23.375
62,622.382,1.9453125,-0.23828125,-9.84765625,621.6310000000001,0.0,-0.00390625,0.0,622.3919999999999,-10.1875,36.6875,21.75
63,632.2090000000001,1.89453125,-0.23828125,-9.8125,631.6129999999999,0.0,-0.001953125,0.001953125,632.2149999999999,-9.0625,36.0,22.5625
64,642.0360000000001,1.90625,-0.23828125,-9.80859375,641.718,0.0,0.0,0.0,642.145,-9.4375,36.0,22.5625
65,652.062,1.90625,-0.21875,-9.8203125,651.883,0.0,0.0,0.001953125,652.069,-10.5,36.0,22.5625
66,661.8439999999999,1.92578125,-0.23828125,-9.76171875,661.794,0.0,0.001953125,0.0,661.85,-9.4375,36.0,22.5625
67,673.685,1.90625,-0.2578125,-9.80859375,671.8309999999999,-0.001953125,0.00390625,0.0,673.495,-9.8125,36.0,21.75
68,683.495,1.92578125,-0.2109375,-9.8125,682.0319999999999,-0.001953125,0.00390625,0.0,683.605,-9.4375,36.0,23.0
69,693.4019999999999,1.90625,-0.2578125,-9.80859375,691.939,0.0,0.00390625,0.001953125,693.508,-9.8125,36.0,22.1875
70,703.213,1.87890625,-0.2109375,-9.77734375,701.7520000000001,0.0,0.001953125,0.0,703.321,-10.1875,36.0,22.9375
71,713.167,1.9140625,-0.21875,-9.8125,711.804,0.0,0.001953125,-0.001953125,713.173,-10.1875,37.0625,23.375
72,723.05,1.87890625,-0.2109375,-9.859375,721.688,0.0,0.0,-0.001953125,723.0569999999999,-10.1875,35.25,23.0
73,732.977,1.90625,-0.25,-9.79296875,731.715,0.0,0.0,-0.001953125,732.8829999999999,-10.5,36.0,22.1875
74,742.87,1.93359375,-0.26953125,-9.80859375,741.6089999999999,0.0,0.0,-0.001953125,742.977,-10.5,37.0625,23.75
75,752.679,1.9453125,-0.26953125,-9.80859375,751.419,0.0,0.0,-0.001953125,752.7850000000001,-9.8125,36.0,23.0
76,762.587,1.87890625,-0.2578125,-9.80859375,761.726,0.0,-0.001953125,0.0,762.494,-10.5,35.25,22.5625
77,772.6619999999999,1.90625,-0.2578125,-9.83984375,771.648,0.0,-0.00390625,0.0,772.5880000000001,-9.8125,36.375,23.375
78,782.377,1.89453125,-0.25,-9.75,781.66,0.0,-0.00390625,0.001953125,782.383,-10.1875,35.25,23.375
79,792.301,1.92578125,-0.21875,-9.81640625,791.803,0.001953125,-0.001953125,0.001953125,792.308,-9.8125,35.25,23.0
80,802.2439999999999,1.87890625,-0.25,-9.8359375,801.629,0.001953125,-0.001953125,0.001953125,802.25,-9.8125,36.0,20.5625
81,812.009,1.87890625,-0.2109375,-9.82421875,811.695,0.001953125,-0.001953125,0.0,812.122,-9.8125,36.0,23.375
82,822.091,1.90625,-0.26953125,-9.765625,822.043,0.0,0.0,-0.001953125,822.097,-10.5,36.375,21.75
83,831.8449999999999,1.88671875,-0.23046875,-9.8359375,831.822,0.001953125,0.0,0.0,831.955,-9.4375,36.75,23.0
84,843.687,1.87890625,-0.21875,-9.7734375,841.8330000000001,0.0,0.001953125,0.001953125,843.6940000000001,-9.8125,35.25,23.8125
85,853.419,1.953125,-0.27734375,-9.80078125,851.957,0.0,0.00390625,0.0,853.5279999999999,-9.8125,36.0,22.5625
86,863.491,1.93359375,-0.23828125,-9.79296875,862.03,0.0,0.00390625,0.0,863.398,-9.8125,36.0,21.75
87,873.371,1.92578125,-0.23828125,-9.80859375,871.909,0.0,0.005859375,0.0,873.2769999999999,-10.1875,36.375,22.1875
88,883.232,1.89453125,-0.2578125,-9.8046875,881.974,0.0,0.005859375,0.0,883.3389999999999,-10.1875,36.375,22.5625
89,893.12,1.9140625,-0.21875,-9.82421875,891.663,0.0,0.005859375,-0.001953125,893.226,-9.8125,36.0,23.0
90,902.9549999999999,1.9140625,-0.23046875,-9.8515625,901.4929999999999,0.0,0.00390625,0.0,903.062,-10.5,35.25,23.375
91,912.762,1.89453125,-0.23828125,-9.8125,911.6039999999999,0.0,0.001953125,0.0,912.768,-9.8125,35.625,22.5625
92,922.672,1.88671875,-0.27734375,-9.75390625,921.411,0.0,0.0,0.001953125,922.779,-9.4375,36.375,23.0
93,932.545,1.90625,-0.2578125,-9.8203125,931.683,0.0,-0.001953125,0.001953125,932.651,-10.1875,35.25,21.375
94,942.472,1.88671875,-0.23828125,-9.8359375,941.504,0.0,-0.005859375,0.001953125,942.4789999999999,-9.4375,36.75,22.5625
95,952.404,1.90625,-0.21875,-9.8203125,951.703,0.0,-0.0078125,0.0,952.214,-9.4375,35.625,22.1875
96,962.28,1.9453125,-0.25,-9.7734375,961.779,0.001953125,-0.0078125,0.0,962.287,-9.8125,36.75,22.1875
97,972.075,1.92578125,-0.25,-9.80078125,971.6590000000001,0.001953125,-0.0078125,-0.001953125,972.086,-9.4375,36.75,22.1875
98,982.127,1.92578125,-0.25,-9.77734375,981.5500000000001,0.0,-0.001953125,-0.001953125,982.135,-9.4375,36.0,21.375
99,991.9689999999999,1.89453125,-0.23046875,-9.88671875,991.9449999999999,0.0,0.0,0.0,991.88,-9.8125,36.375,21.75
100,1003.795,1.93359375,-0.23046875,-9.82421875,1002.1009999999999,0.0,0.0,-0.001953125,1003.6020000000001,-9.4375,36.0,23.375
101,1013.5860000000001,1.9140625,-0.23046875,-9.79296875,1011.8860000000001,0.0,0.001953125,0.0,1013.4920000000001,-10.875,36.375,23.8125
102,1023.587,1.93359375,-0.25,-9.83984375,1021.787,-0.001953125,0.00390625,0.0,1023.3939999999999,-9.8125,36.0,23.0
103,1033.436,1.9453125,-0.23828125,-9.82421875,1031.979,-0.001953125,0.005859375,0.001953125,1033.346,-9.0625,36.0,21.75
104,1043.29,1.92578125,-0.25,-9.80078125,1041.8609999999999,0.0,0.0,0.0,1043.299,-9.0625,35.625,23.375
105,1053.203,1.87890625,-0.25,-9.80078125,1051.7540000000001,0.0,0.0,0.0,1053.009,-10.1875,35.625,23.0
106,1063.089,1.92578125,-0.25,-9.77734375,1061.6429999999998,0.0,0.0,0.0,1063.099,-10.1875,36.75,21.75
107,1072.864,1.88671875,-0.19921875,-9.7890625,1071.715,0.0,0.0,0.0,1072.97,-9.0625,36.75,23.0
108,1082.73,1.9140625,-0.19921875,-9.7734375,1081.6809999999998,0.0,0.0,0.0,1082.737,-9.0625,35.25,22.1875
109,1092.763,1.953125,-0.21875,-9.82421875,1091.614,0.0,0.0,0.0,1092.67,-9.0625,35.625,22.5625
110,1102.579,1.92578125,-0.25,-9.859375,1101.4180000000001,0.0,0.0,0.0,1102.588,-9.4375,36.375,23.0
111,1112.4750000000001,1.89453125,-0.23046875,-9.875,1111.918,0.0,0.0,0.0,1112.481,-9.8125,36.0,21.75
112,1122.413,1.9453125,-0.23046875,-9.8359375,1121.756,0.0,0.0,0.0,1122.419,-9.4375,36.0,21.75
113,1132.1570000000002,1.92578125,-0.23046875,-9.87890625,1131.705,0.0,0.0,0.0,1132.166,-9.8125,37.0625,22.5625
114,1142.039,1.90625,-0.2109375,-9.765625,1141.6219999999998,0.0,0.0,0.0,1142.0459999999998,-9.0625,36.0,22.5625
115,1152.094,1.90625,-0.2578125,-9.83984375,1151.99,0.0,0.0,0.0,1152.0,-8.6875,35.625,23.0
116,1163.834,1.92578125,-0.2578125,-9.87890625,1161.9930000000002,0.0,0.0,0.0,1163.84,-8.6875,36.0,22.5625
117,1173.841,1.9140625,-0.26953125,-9.76171875,1171.996,0.0,0.0,0.0,1173.6470000000002,-9.8125,36.0,22.5625
118,1183.41,1.87890625,-0.23046875,-9.8203125,1182.114,0.0,0.0,0.0,1183.5169999999998,-9.0625,36.0,22.5625
119,1193.379,1.9140625,-0.23046875,-9.77734375,1191.882,0.0,0.0,0.0,1193.485,-9.4375,36.375,21.75
120,1203.336,1.9453125,-0.21875,-9.8359375,1201.741,0.0,0.0,0.0,1203.343,-9.8125,35.25,21.75
121,1213.258,1.93359375,-0.23046875,-9.7578125,1211.862,0.0,0.0,0.0,1213.264,-10.1875,37.0625,23.0
122,1223.137,1.93359375,-0.21875,-9.8046875,1221.741,0.0,0.0,0.0,1223.143,-9.4375,35.625,23.0
123,1231.759,1.89453125,-0.25,-9.76953125,1231.726,0.0,0.0,0.0,1231.663,-9.4375,36.0,22.5625
124,1242.961,1.9140625,-0.21875,-9.8125,1241.665,0.0,0.0,0.0,1242.871,-9.8125,35.625,21.75
125,1252.804,1.90625,-0.25,-9.80078125,1251.509,0.0,0.0,0.0,1252.914,-9.4375,35.25,23.375
126,1262.672,1.87890625,-0.23046875,-9.7734375,1261.576,0.0,0.0,0.0,1262.7820000000002,-9.8125,36.0,21.75
127,1272.454,1.92578125,-0.23046875,-9.8203125,1271.728,0.0,0.0,0.0,1272.464,-9.4375,36.75,22.5625
128,1284.339,1.90625,-0.25,-9.7578125,1282.425,0.0,0.0,0.0,1284.346,-9.0625,35.625,21.375
129,1292.376,1.90625,-0.23828125,-9.80859375,1291.772,0.0,0.0,0.0,1292.182,-10.1875,36.375,23.0
130,1302.273,1.87890625,-0.21875,-9.84375,1301.766,0.0,0.0,0.0,1302.341,-10.1875,35.625,22.1875
131,1312.0149999999999,1.9140625,-0.23828125,-9.8125,1311.6490000000001,0.0,0.0,0.0,1312.022,-9.8125,36.375,23.375
132,1322.067,1.92578125,-0.23828125,-9.76953125,1321.982,0.0,0.0,0.0,1322.0,-9.8125,36.375,21.75
133,1333.656,1.9140625,-0.23828125,-9.80078125,1331.999,0.0,0.0,0.0,1333.666,-9.8125,36.75,22.5625
134,1343.596,1.92578125,-0.25,-9.8359375,1341.886,0.0,0.0,0.0,1343.7060000000001,-10.1875,36.0,22.5625
135,1353.415,1.90625,-0.25,-9.79296875,1352.103,0.0,0.0,0.0,1353.524,-9.4375,36.0,22.1875
136,1363.302,1.92578125,-0.21875,-9.796875,1361.9920000000002,0.0,0.0,0.0,1363.412,-9.0625,36.0,23.0
137,1373.3029999999999,1.9140625,-0.23046875,-9.8515625,1372.191,0.0,0.0,0.0,1373.409,-9.4375,36.75,23.0
138,1383.161,1.89453125,-0.21875,-9.84765625,1382.0539999999999,0.0,0.0,0.0,1383.268,-10.1875,36.375,22.1875
139,1393.052,1.89453125,-0.23046875,-9.80078125,1392.144,0.0,0.0,0.0,1393.158,-9.4375,36.375,21.75
140,1402.938,1.89453125,-0.23046875,-9.8359375,1401.8310000000001,0.0,0.0,0.0,1403.045,-10.1875,36.375,22.5625
141,1412.856,1.89453125,-0.23046875,-9.79296875,1411.945,0.0,0.0,0.0,1412.962,-9.4375,36.0,21.75
142,1422.759,1.9140625,-0.23828125,-9.8046875,1421.65,0.0,0.0,0.0,1422.665,-9.0625,36.375,23.375
143,1432.673,1.89453125,-0.2578125,-9.7578125,1431.455,0.0,0.0,0.0,1432.579,-9.4375,36.75,22.5625
144,1442.561,1.9453125,-0.2578125,-9.8515625,1441.86,0.0,0.0,0.0,1442.5710000000001,-8.6875,36.375,22.5625
145,1452.453,1.92578125,-0.2109375,-9.82421875,1451.7469999999998,0.0,0.0,0.0,1452.2600000000002,-9.0625,36.0,23.375
146,1462.4029999999998,1.88671875,-0.27734375,-9.80078125,1461.586,0.0,0.0,0.0,1462.41,-10.5,36.375,23.375
147,1472.262,1.9453125,-0.25,-9.7734375,1471.8850000000002,0.0,0.0,0.0,1472.269,-9.0625,37.0625,23.0
148,1482.1219999999998,1.96484375,-0.25,-9.7734375,1482.0169999999998,0.0,0.0,0.0,1482.032,-9.8125,35.625,21.75
149,1493.914,1.89453125,-0.23828125,-9.8359375,1492.058,0.0,0.0,0.0,1493.7240000000002,-9.4375,36.75,21.75
150,1503.687,1.90625,-0.25,-9.8359375,1502.0359999999998,0.0,0.0,0.0,1503.6970000000001,-10.1875,34.875,22.5625
151,1513.689,1.88671875,-0.2578125,-9.8125,1511.978,0.0,0.0,0.0,1513.598,-9.8125,37.0625,21.375
152,1523.591,1.89453125,-0.25,-9.75,1521.881,0.0,0.0,0.0,1523.501,-10.875,35.25,21.75
153,1535.357,1.89453125,-0.19140625,-9.82421875,1533.246,0.0,0.0,0.0,1535.363,-10.1875,35.625,22.1875
154,1543.2520000000002,1.9140625,-0.2578125,-9.8046875,1542.04,0.0,0.0,0.0,1543.257,-9.8125,35.25,22.1875
155,1553.175,1.90625,-0.23828125,-9.7890625,1551.766,0.0,0.0,0.0,1553.182,-10.1875,36.375,23.8125
156,1563.067,1.89453125,-0.2578125,-9.82421875,1561.66,0.0,0.0,0.0,1563.078,-8.6875,36.0,22.5625
157,1572.91,1.9140625,-0.2578125,-9.8125,1571.6000000000001,0.0,0.0,0.0,1573.017,-10.5,35.625,22.5625
158,1582.83,1.90625,-0.23828125,-9.75,1581.719,0.0,0.0,0.0,1582.936,-9.8125,36.375,22.1875
159,1592.813,1.90625,-0.23046875,-9.83984375,1591.588,0.0,0.0,0.0,1592.823,-9.0625,37.0625,22.1875
160,1602.6689999999999,1.89453125,-0.19140625,-9.82421875,1601.647,0.0,0.0,0.0,1602.576,-9.8125,36.0,22.1875
161,1612.4950000000001,1.92578125,-0.2109375,-9.8046875,1611.8809999999999,0.0,0.0,0.0,1612.505,-9.8125,36.0,23.0
162,1622.453,1.9140625,-0.23828125,-9.80078125,1621.839,0.0,0.0,0.0,1622.46,-9.0625,36.0,22.5625
163,1632.334,1.88671875,-0.23828125,-9.77734375,1631.951,0.0,0.0,0.0,1632.3790000000001,-9.4375,36.375,21.8125
164,1642.081,1.89453125,-0.23828125,-9.82421875,1642.099,0.0,0.0,0.0,1642.085,-10.5,36.0,22.5625
165,1651.9850000000001,1.90625,-0.26953125,-9.73046875,1652.056,0.0,0.0,0.0,1651.9969999999998,-9.4375,36.0,22.5625
166,1663.726,1.93359375,-0.25,-9.7734375,1662.067,0.0,0.0,0.0,1663.733,-9.8125,36.375,23.0
167,1673.741,1.93359375,-0.23828125,-9.79296875,1672.029,0.0,0.0,0.0,1673.6470000000002,-10.5,35.25,22.1875
168,1683.6100000000001,1.9140625,-0.2109375,-9.76953125,1681.8999999999999,0.0,0.0,0.0,1683.7169999999999,-9.4375,36.375,21.75
169,1693.436,1.89453125,-0.25,-9.7734375,1692.1280000000002,0.0,0.0,0.0,1693.345,-9.0625,36.75,22.1875
170,1703.421,1.90625,-0.21875,-9.83984375,1701.9089999999999,0.0,0.0,0.0,1703.528,-10.1875,36.375,21.75
171,1713.241,1.9140625,-0.23828125,-9.80078125,1712.032,0.0,0.0,0.0,1713.247,-9.8125,37.4375,22.5625
172,1723.1909999999998,1.92578125,-0.25,-9.79296875,1721.883,0.0,0.0,0.0,1723.098,-9.8125,36.75,21.8125
173,1733.078,1.9140625,-0.21875,-9.84765625,1731.7659999999998,0.0,0.0,0.0,1732.9840000000002,-9.4375,35.25,23.0
174,1742.893,1.953125,-0.27734375,-9.79296875,1741.587,0.0,0.0,0.0,1743.0,-9.4375,35.25,22.5625
175,1752.7710000000002,1.89453125,-0.2578125,-9.8359375,1751.879,0.0,0.0,0.0,1752.6770000000001,-9.4375,35.25,22.1875
176,1762.729,1.89453125,-0.23828125,-9.8125,1761.706,0.0,0.0,0.0,1762.637,-10.1875,37.0625,22.5625
177,1772.608,1.92578125,-0.27734375,-9.80859375,1771.905,0.0,0.0,0.0,1772.414,-9.0625,36.375,23.375
178,1782.297,1.84765625,-0.2578125,-9.8046875,1781.79,0.0,0.0,0.0,1782.3029999999999,-9.8125,37.0625,23.0
179,1794.164,1.90625,-0.2578125,-9.85546875,1792.166,0.0,0.0,0.0,1794.2720000000002,-10.5,36.75,21.75
180,1802.222,1.92578125,-0.23828125,-9.81640625,1801.692,0.0,0.0,0.0,1802.1180000000002,-9.8125,36.75,22.5625
181,1812.1670000000001,1.90625,-0.26953125,-9.8046875,1812.076,0.0,0.0,0.0,1812.077,-10.1875,36.0,22.5625
182,1824.006,1.89453125,-0.23046875,-9.84765625,1822.1119999999999,0.0,0.0,0.0,1824.0149999999999,-9.0625,36.0,22.5625
183,1833.8000000000002,1.90625,-0.25,-9.8359375,1832.257,0.0,0.0,0.0,1833.907,-10.1875,36.0,21.75
184,1843.6950000000002,1.90625,-0.2578125,-9.796875,1842.147,0.0,0.0,0.0,1843.8049999999998,-9.0625,36.375,23.375
185,1853.512,1.9453125,-0.2109375,-9.83984375,1851.964,0.0,0.0,0.0,1853.622,-9.4375,36.375,22.1875
186,1863.4630000000002,1.88671875,-0.25,-9.8203125,1862.0140000000001,0.0,0.0,0.0,1863.472,-9.8125,36.0,22.1875
187,1873.3509999999999,1.9140625,-0.19921875,-9.81640625,1871.902,0.0,0.0,0.0,1873.357,-10.1875,36.375,22.1875
188,1883.2420000000002,1.9140625,-0.23046875,-9.82421875,1881.795,0.0,0.0,0.0,1883.248,-9.8125,36.0,22.5625
189,1893.175,1.89453125,-0.2109375,-9.81640625,1891.8239999999998,0.0,0.0,0.0,1893.081,-9.8125,37.0625,22.5625
190,1902.887,1.9453125,-0.2578125,-9.8125,1901.638,0.0,0.0,0.0,1902.893,-10.1875,36.375,21.75
191,1912.987,1.90625,-0.21875,-9.75,1911.7459999999999,0.0,0.0,0.0,1912.798,-10.5,36.0,22.5625
192,1922.715,1.88671875,-0.2109375,-9.75,1921.761,0.0,0.0,0.0,1922.725,-9.8125,36.75,22.1875
193,1932.642,1.9453125,-0.2109375,-9.734375,1932.0839999999998,0.0,0.0,0.0,1932.6490000000001,-9.8125,36.375,21.0
194,1942.5829999999999,1.88671875,-0.296875,-9.80859375,1941.931,0.0,0.0,0.0,1942.593,-10.1875,36.0,22.1875
195,1952.345,1.9140625,-0.19140625,-9.8125,1951.893,0.0,0.0,0.0,1952.355,-9.8125,36.0,23.0
196,1962.218,1.93359375,-0.23046875,-9.82421875,1961.8020000000001,0.0,0.0,0.0,1962.2250000000001,-9.0625,36.375,23.375
197,1972.23,1.92578125,-0.23828125,-9.86328125,1972.164,0.0,0.0,0.0,1972.161,-9.8125,36.375,23.0
198,1983.974,1.88671875,-0.23828125,-9.73828125,1982.1329999999998,0.0,0.0,0.0,1983.981,-9.4375,36.0,22.5625
199,1993.846,1.9140625,-0.25,-9.87890625,1992.0040000000001,0.0,0.0,0.0,1993.853,-9.8125,35.625,23.375
200,2002.075,1.92578125,-0.27734375,-9.80859375,2002.106,0.0,0.0,0.0,2002.085,-9.4375,35.625,22.5625
201,2013.734,1.9140625,-0.23828125,-9.765625,2012.038,0.0,0.0,0.0,2013.64,-9.0625,36.0,22.5625
202,2023.574,1.8671875,-0.23046875,-9.8203125,2022.077,0.0,0.0,0.0,2023.484,-9.4375,36.75,22.5625
203,2031.962,1.93359375,-0.2578125,-9.8125,2031.928,0.0,0.0,0.0,2031.866,-10.1875,35.625,23.0
204,2043.418,1.92578125,-0.19921875,-9.77734375,2041.836,0.0,0.0,0.0,2043.228,-9.4375,36.75,23.0
205,2053.191,1.90625,-0.21875,-9.8203125,2051.695,0.0,0.0,0.0,2053.298,-9.0625,36.0,23.375
206,2062.9990000000003,1.87890625,-0.23046875,-9.84375,2061.7549999999997,0.0,0.0,0.0,2063.1059999999998,-8.6875,36.375,23.375
207,2072.942,1.93359375,-0.27734375,-9.80078125,2071.6459999999997,0.0,0.0,0.0,2073.048,-9.8125,36.0,22.5625
208,2082.696,1.953125,-0.23828125,-9.80078125,2081.9030000000002,0.0,0.0,0.0,2082.703,-9.0625,36.375,23.0
209,2092.6749999999997,1.89453125,-0.25,-9.81640625,2091.77,0.0,0.0,0.0,2092.682,-9.8125,36.0,23.375
210,2102.6,1.9140625,-0.2578125,-9.84765625,2102.0029999999997,0.0,0.0,0.0,2102.408,-9.4375,36.0,23.375
211,2112.498,1.9140625,-0.23828125,-9.77734375,2112.099,0.0,0.0,0.0,2112.504,-8.6875,36.0,22.5625
212,2122.194,1.9140625,-0.25,-9.76171875,2121.6910000000003,0.0,0.0,0.0,2122.263,-9.0625,36.375,22.1875
213,2132.187,1.87890625,-0.23046875,-9.85546875,2131.822,0.0,0.0,0.0,2132.19,-9.4375,35.25,23.0
214,2142.126,1.88671875,-0.23828125,-9.77734375,2142.11,0.0,0.0,0.0,2142.033,-9.0625,37.0625,22.1875
215,2153.998,1.9453125,-0.21875,-9.8125,2152.138,0.0,0.0,0.0,2154.004,-9.8125,34.875,21.0
216,2163.736,1.89453125,-0.2578125,-9.8046875,2162.225,0.0,0.0,0.0,2163.8419999999996,-9.8125,36.375,23.0
217,2173.517,1.88671875,-0.25,-9.8203125,2172.206,0.0,0.0,0.0,2173.623,-10.5,36.0,22.5625
218,2183.524,1.9140625,-0.25,-9.80859375,2182.4150000000004,0.0,0.0,0.0,2183.6310000000003,-9.4375,36.0,23.375
219,2193.412,1.89453125,-0.2578125,-9.765625,2192.301,0.0,0.0,0.0,2193.518,-9.8125,35.625,22.1875
220,2203.252,1.97265625,-0.23828125,-9.796875,2202.145,0.0,0.0,0.0,2203.3619999999996,-9.8125,36.0,22.625
221,2213.161,1.953125,-0.23046875,-9.80078125,2212.253,0.0,0.0,0.0,2213.27,-9.4375,36.0,23.0
222,2223.022,1.92578125,-0.26953125,-9.8046875,2221.9120000000003,0.0,0.0,0.0,2223.132,-9.8125,35.625,22.625
223,2232.876,1.93359375,-0.23046875,-9.80078125,2231.864,0.0,0.0,0.0,2232.885,-9.4375,36.75,21.8125
224,2242.848,1.89453125,-0.23828125,-9.8125,2241.738,0.0,0.0,0.0,2242.9579999999996,-9.8125,36.75,21.8125
225,2252.717,1.90625,-0.21875,-9.80859375,2251.797,0.0,0.0,0.0,2252.728,-10.1875,36.375,22.1875
226,2262.603,1.89453125,-0.25,-9.84375,2262.042,0.0,0.0,0.0,2262.61,-9.8125,36.0,22.625
227,2272.5460000000003,1.93359375,-0.25,-9.7734375,2272.132,0.0,0.0,0.0,2272.5559999999996,-8.6875,37.8125,21.8125
228,2282.3190000000004,1.90625,-0.2109375,-9.80078125,2281.8019999999997,0.0,0.0,0.0,2282.3289999999997,-9.4375,35.625,23.0
229,2294.2619999999997,1.9140625,-0.21875,-9.82421875,2292.243,0.0,0.0,0.0,2294.272,-10.1875,35.25,21.375
230,2302.045,1.90625,-0.21875,-9.7265625,2301.94,0.0,0.0,0.0,2302.154,-9.4375,34.875,22.1875
231,2314.02,1.88671875,-0.25,-9.76953125,2312.164,0.0,0.0,0.0,2314.029,-10.5,36.0,22.1875
232,2323.967,1.9140625,-0.2109375,-9.76171875,2322.257,0.0,0.0,0.0,2323.874,-9.8125,35.625,22.1875
233,2333.801,1.9453125,-0.23046875,-9.765625,2332.0919999999996,0.0,0.0,0.0,2333.91,-9.8125,35.625,21.375
234,2343.51,1.90625,-0.23046875,-9.85546875,2342.0,0.0,0.0,0.0,2343.62,-10.1875,35.625,22.1875
235,2353.509,1.92578125,-0.2578125,-9.796875,2352.298,0.0,0.0,0.0,2353.518,-9.8125,35.25,23.0
236,2363.393,1.93359375,-0.23046875,-9.77734375,2361.9829999999997,0.0,0.0,0.0,2363.403,-10.5,36.375,23.375
237,2373.277,1.9140625,-0.21875,-9.82421875,2371.868,0.0,0.0,0.0,2373.284,-10.1875,36.375,23.0
238,2383.108,1.88671875,-0.23828125,-9.79296875,2381.9,0.0,0.0,0.0,2383.121,-10.1875,35.625,22.1875
239,2392.944,1.87890625,-0.27734375,-9.796875,2391.737,0.0,0.0,0.0,2392.953,-8.6875,36.375,23.0
240,2402.828,1.93359375,-0.23046875,-9.8125,2402.021,0.0,0.0,0.0,2402.838,-9.8125,36.0,22.1875
241,2412.786,1.93359375,-0.23828125,-9.8046875,2411.862,0.0,0.0,0.0,2412.792,-10.875,36.375,23.375
242,2422.768,1.87890625,-0.25,-9.8046875,2421.948,0.0,0.0,0.0,2422.678,-10.5,36.75,21.8125
243,2432.611,1.92578125,-0.27734375,-9.7734375,2431.993,0.0,0.0,0.0,2432.617,-9.8125,36.0,22.1875
244,2442.593,1.93359375,-0.27734375,-9.765625,2441.976,0.0,0.0,0.0,2442.399,-9.0625,36.0,22.5625
245,2452.2149999999997,1.88671875,-0.23046875,-9.7578125,2451.835,0.0,0.0,0.0,2452.221,-9.4375,34.5625,21.8125
246,2462.288,1.92578125,-0.23046875,-9.80859375,2462.184,0.0,0.0,0.0,2462.197,-9.0625,35.625,21.8125
247,2474.053,1.90625,-0.25,-9.765625,2471.9959999999996,0.0,0.0,0.0,2474.062,-10.5,36.375,22.5625
248,2483.835,1.9140625,-0.2109375,-9.86328125,2482.179,0.0,0.0,0.0,2483.844,-9.8125,36.0,23.375
249,2493.804,1.90625,-0.25,-9.8046875,2492.0939999999996,0.0,0.0,0.0,2493.914,-10.1875,36.0,22.1875
250,2503.6510000000003,1.89453125,-0.23828125,-9.80078125,2502.3399999999997,0.0,0.0,0.0,2503.7569999999996,-9.4375,36.375,21.0
251,2513.501,1.92578125,-0.21875,-9.8203125,2512.1910000000003,0.0,0.0,0.0,2513.608,-8.3125,36.375,23.0
252,2523.4480000000003,1.89453125,-0.23046875,-9.8515625,2522.236,0.0,0.0,0.0,2523.454,-9.4375,36.375,21.0
253,2533.334,1.89453125,-0.23828125,-9.8515625,2532.1240000000003,0.0,0.0,0.0,2533.344,-10.5,36.75,22.5625
254,2543.144,1.9140625,-0.23828125,-9.77734375,2541.935,0.0,0.0,0.0,2543.151,-9.4375,36.375,21.0
255,2555.167,1.90625,-0.2578125,-9.80859375,2553.042,0.0,0.0,0.0,2554.974,-9.4375,36.375,21.8125
256,2562.8940000000002,1.96484375,-0.2578125,-9.82421875,2561.8669999999997,0.0,0.0,0.0,2563.0,-10.1875,36.0,23.4375
257,2572.8360000000002,1.90625,-0.23828125,-9.8203125,2571.797,0.0,0.0,0.0,2572.7419999999997,-10.875,36.0,22.1875
258,2582.9,1.90625,-0.2578125,-9.7734375,2581.839,0.0,0.0,0.0,2582.7110000000002,-10.1875,36.375,21.375
259,2592.634,1.89453125,-0.21875,-9.8515625,2592.013,0.0,0.0,0.0,2592.741,-9.8125,36.75,22.625
260,2602.5480000000002,1.90625,-0.2578125,-9.8203125,2602.042,0.0,0.0,0.0,2602.554,-10.1875,37.4375,22.1875
261,2612.484,1.953125,-0.23828125,-9.7578125,2611.872,0.0,0.0,0.0,2612.4930000000004,-10.1875,36.375,22.625
262,2622.267,1.88671875,-0.27734375,-9.79296875,2621.951,0.0,0.0,0.0,2622.179,-9.8125,36.375,23.8125
263,2632.337,1.90625,-0.23828125,-9.7890625,2632.285,0.0,0.0,0.0,2632.34,-9.4375,35.625,23.0
264,2644.022,1.90625,-0.23046875,-9.81640625,2642.128,0.0,0.0,0.0,2644.0280000000002,-9.8125,36.0,21.8125
265,2654.021,1.93359375,-0.23046875,-9.765625,2652.196,0.0,0.0,0.0,2653.928,-9.4375,36.375,21.8125
266,2663.7050000000004,1.953125,-0.23046875,-9.82421875,2662.08,0.0,0.0,0.0,2663.811,-9.8125,34.9375,22.625
267,2673.653,1.92578125,-0.23046875,-9.7890625,2672.2290000000003,0.0,0.0,0.0,2673.76,-9.4375,36.75,22.625
268,2683.48,1.9140625,-0.2109375,-9.87890625,2682.254,0.0,0.0,0.0,2683.5860000000002,-9.8125,36.0,22.625
269,2693.293,1.90625,-0.23046875,-9.8203125,2691.9719999999998,0.0,0.0,0.0,2693.304,-9.8125,36.375,22.625
270,2703.2850000000003,1.92578125,-0.2578125,-9.83984375,2701.863,0.0,0.0,0.0,2703.395,-9.4375,36.75,22.1875
271,2713.037,1.9140625,-0.2109375,-9.83984375,2711.81,0.0,0.0,0.0,2713.1470000000004,-9.4375,36.75,22.1875
272,2722.985,1.9453125,-0.2578125,-9.77734375,2721.958,0.0,0.0,0.0,2723.0910000000003,-10.5,35.25,21.8125
273,2732.857,1.89453125,-0.23046875,-9.8515625,2732.0319999999997,0.0,0.0,0.0,2732.964,-9.8125,36.0,23.375
274,2742.731,1.9453125,-0.2109375,-9.7890625,2741.938,0.0,0.0,0.0,2742.737,-10.875,36.75,22.625
275,2752.681,1.90625,-0.26953125,-9.8359375,2751.9230000000002,0.0,0.0,0.0,2752.688,-10.5,36.375,21.8125
276,2762.619,1.87890625,-0.23046875,-9.796875,2762.06,0.0,0.0,0.0,2762.6279999999997,-9.4375,36.375,22.1875
277,2772.3830000000003,1.90625,-0.25,-9.8046875,2771.926,0.0,0.0,0.0,2772.389,-9.8125,35.625,22.1875
278,2782.371,1.9140625,-0.23046875,-9.8046875,2781.994,0.0,0.0,0.0,2782.263,-9.8125,36.75,23.8125
279,2792.2129999999997,1.9140625,-0.23828125,-9.84765625,2792.281,0.0,0.0,0.0,2792.2189999999996,-9.8125,36.375,22.1875
280,2804.164,1.89453125,-0.2578125,-9.75390625,2802.263,0.0,0.0,0.0,2804.1730000000002,-9.4375,35.625,22.625
281,2814.022,1.93359375,-0.23046875,-9.84765625,2812.248,0.0,0.0,0.0,2814.028,-9.4375,35.625,23.0
282,2823.9359999999997,1.88671875,-0.2109375,-9.8203125,2822.163,0.0,0.0,0.0,2823.8430000000003,-9.8125,35.625,22.625
283,2833.7,1.87890625,-0.25,-9.7578125,2832.058,0.0,0.0,0.0,2833.606,-10.5,36.375,22.1875
284,2843.579,1.89453125,-0.23828125,-9.79296875,2842.205,0.0,0.0,0.0,2843.685,-10.1875,36.75,22.625
285,2852.268,1.88671875,-0.25,-9.75,2852.2340000000004,0.0,0.0,0.0,2852.171,-9.4375,37.0625,23.0
286,2863.302,1.89453125,-0.23046875,-9.8125,2861.929,0.0,0.0,0.0,2863.4089999999997,-10.1875,36.0,20.5625
287,2872.0769999999998,1.92578125,-0.27734375,-9.81640625,2871.9429999999998,0.0,0.0,0.0,2871.88,-9.0625,36.375,23.0
288,2883.151,1.9140625,-0.19140625,-9.80078125,2881.781,0.0,0.0,0.0,2883.257,-9.8125,36.75,23.0
289,2893.086,1.92578125,-0.23046875,-9.81640625,2891.7169999999996,0.0,0.0,0.0,2892.993,-9.4375,37.8125,21.8125
290,2902.846,1.90625,-0.25,-9.79296875,2901.836,0.0,0.0,0.0,2902.9519999999998,-9.8125,36.375,21.8125
291,2912.726,1.90625,-0.19140625,-9.80859375,2912.1169999999997,0.0,0.0,0.0,2912.632,-9.8125,36.375,23.0
292,2922.6440000000002,1.90625,-0.2578125,-9.7734375,2921.8700000000003,0.0,0.0,0.0,2922.7129999999997,-9.0625,36.375,23.0
293,2932.419,1.87890625,-0.23828125,-9.796875,2931.9120000000003,0.0,0.0,0.0,2932.4249999999997,-9.0625,35.625,22.625
294,2942.337,1.92578125,-0.23828125,-9.7734375,2941.971,0.0,0.0,0.0,2942.3430000000003,-9.4375,35.625,22.1875
295,2952.369,1.88671875,-0.23828125,-9.8125,2952.277,0.0,0.0,0.0,2952.2780000000002,-9.8125,36.375,21.8125
296,2964.162,1.9140625,-0.23046875,-9.8515625,2962.3050000000003,0.0,0.0,0.0,2964.171,-9.8125,36.75,21.8125
297,2974.0899999999997,1.9140625,-0.2578125,-9.8515625,2972.378,0.0,0.0,0.0,2974.0,-8.6875,36.0,22.625
298,2983.918,1.90625,-0.23828125,-9.84375,2982.205,0.0,0.0,0.0,2984.027,-10.1875,36.375,22.625
299,2993.697,1.96484375,-0.23046875,-9.80078125,2992.385,0.0,0.0,0.0,2993.807,-10.1875,36.0,22.625
300,3003.597,1.9140625,-0.23828125,-9.82421875,3002.485,0.0,0.0,0.0,3003.506,-9.8125,36.375,22.625
301,3013.484,1.90625,-0.23046875,-9.87890625,3012.373,0.0,0.0,0.0,3013.594,-9.4375,35.625,22.1875
302,3023.335,1.9453125,-0.2109375,-9.81640625,3022.3230000000003,0.0,0.0,0.0,3023.3439999999996,-9.8125,36.75,21.8125
303,3033.2110000000002,1.89453125,-0.23046875,-9.765625,3032.1,0.0,0.0,0.0,3033.3230000000003,-10.1875,36.375,23.0
304,3043.142,1.89453125,-0.2109375,-9.76171875,3042.23,0.0,0.0,0.0,3043.251,-9.8125,36.375,22.625
305,3053.097,1.92578125,-0.27734375,-9.85546875,3051.8869999999997,0.0,0.0,0.0,3052.908,-9.8125,35.625,23.8125
306,3064.708,1.90625,-0.21875,-9.796875,3062.851,0.0,0.0,0.0,3064.717,-9.0625,36.75,21.8125
307,3072.835,1.9140625,-0.21875,-9.73046875,3072.132,0.0,0.0,0.0,3072.645,-9.4375,35.625,22.625
308,3082.755,1.88671875,-0.23046875,-9.8046875,3082.2509999999997,0.0,0.0,0.0,3082.7650000000003,-9.0625,35.25,22.1875
309,3092.504,1.92578125,-0.23046875,-9.8203125,3091.987,0.0,0.0,0.0,3092.5099999999998,-9.4375,36.75,22.1875
310,3102.3610000000003,1.9140625,-0.23828125,-9.8125,3101.98,0.0,0.0,0.0,3102.365,-9.8125,35.625,21.8125
311,3112.269,1.92578125,-0.23828125,-9.80859375,3112.3430000000003,0.0,0.0,0.0,3112.276,-9.4375,34.5625,21.8125
312,3124.1910000000003,1.88671875,-0.21875,-9.79296875,3122.3320000000003,0.0,0.0,0.0,3123.998,-9.8125,35.25,23.0
313,3133.985,1.9140625,-0.23828125,-9.8046875,3132.324,0.0,0.0,0.0,3133.992,-9.4375,37.0625,22.625
314,3143.796,1.9140625,-0.19140625,-9.84765625,3142.484,0.0,0.0,0.0,3143.903,-10.1875,36.375,23.0
315,3153.657,1.9140625,-0.19921875,-9.7890625,3152.345,0.0,0.0,0.0,3153.7639999999997,-9.8125,35.625,22.1875
316,3163.692,1.9453125,-0.21875,-9.84765625,3162.479,0.0,0.0,0.0,3163.6980000000003,-10.875,35.25,21.8125
317,3173.578,1.90625,-0.23046875,-9.8203125,3172.1659999999997,0.0,0.0,0.0,3173.585,-9.8125,36.75,22.1875
318,3183.4660000000003,1.89453125,-0.2890625,-9.734375,3182.054,0.0,0.0,0.0,3183.476,-10.1875,36.0,22.1875
319,3193.278,1.93359375,-0.26953125,-9.8203125,3192.088,0.0,0.0,0.0,3193.285,-10.1875,36.75,22.625
320,3203.179,1.89453125,-0.25,-9.8203125,3201.867,0.0,0.0,0.0,3203.2850000000003,-10.875,36.75,21.8125
321,3213.123,1.93359375,-0.2578125,-9.7578125,3212.0099999999998,0.0,0.0,0.0,3213.23,-8.6875,36.75,22.1875
322,3222.984,1.8671875,-0.19921875,-9.8359375,3221.9280000000003,0.0,0.0,0.0,3223.09,-9.0625,36.375,22.1875
323,3232.857,1.9140625,-0.23828125,-9.82421875,3232.1349999999998,0.0,0.0,0.0,3232.864,-9.4375,36.375,21.375
324,3242.899,1.93359375,-0.2578125,-9.8125,3241.938,0.0,0.0,0.0,3242.768,-9.4375,37.0625,23.0
325,3252.734,1.88671875,-0.2578125,-9.80078125,3252.119,0.0,0.0,0.0,3252.7439999999997,-9.4375,35.25,23.0
326,3262.598,1.90625,-0.23046875,-9.81640625,3262.218,0.0,0.0,0.0,3262.605,-9.4375,36.75,22.625
327,3272.397,1.88671875,-0.26953125,-9.7734375,3272.346,0.0,0.0,0.0,3272.404,-10.1875,35.625,22.1875
328,3282.272,1.9140625,-0.21875,-9.75390625,3282.145,0.0,0.0,0.0,3282.283,-9.4375,36.0,22.1875
329,3294.002,1.953125,-0.23828125,-9.77734375,3292.351,0.0,0.0,0.0,3294.0119999999997,-10.5,36.75,21.375
330,3303.9700000000003,1.90625,-0.2109375,-9.875,3302.2619999999997,0.0,0.0,0.0,3304.08,-9.8125,37.0625,22.1875
331,3313.889,1.953125,-0.23828125,-9.84765625,3312.507,0.0,0.0,0.0,3313.7850000000003,-10.5,37.0625,22.625
332,3323.8669999999997,1.9140625,-0.23046875,-9.82421875,3322.36,0.0,0.0,0.0,3323.774,-9.4375,36.375,21.8125
333,3333.633,1.88671875,-0.23828125,-9.79296875,3332.422,0.0,0.0,0.0,3333.6389999999997,-9.8125,36.0,22.625
334,3343.516,1.9453125,-0.2578125,-9.80078125,3342.1059999999998,0.0,0.0,0.0,3343.5229999999997,-9.4375,36.375,21.8125
335,3353.363,1.8671875,-0.23828125,-9.76953125,3352.156,0.0,0.0,0.0,3353.373,-8.6875,36.0,23.0
336,3363.248,1.90625,-0.23828125,-9.796875,3361.9370000000004,0.0,0.0,0.0,3363.357,-9.8125,36.0,22.625
337,3373.1659999999997,1.9140625,-0.26953125,-9.81640625,3372.055,0.0,0.0,0.0,3373.2760000000003,-10.1875,36.375,21.375
338,3383.035,1.89453125,-0.19921875,-9.796875,3381.924,0.0,0.0,0.0,3383.1440000000002,-10.1875,36.375,22.1875
339,3392.903,1.953125,-0.25,-9.76171875,3391.983,0.0,0.0,0.0,3392.914,-9.0625,35.25,22.625
340,3402.859,1.97265625,-0.27734375,-9.87890625,3402.2450000000003,0.0,0.0,0.0,3402.869,-10.1875,37.4375,22.1875
341,3412.6059999999998,1.92578125,-0.19921875,-9.80078125,3412.192,0.0,0.0,0.0,3412.613,-9.8125,35.625,22.625
342,3422.4700000000003,1.90625,-0.2578125,-9.80859375,3422.151,0.0,0.0,0.0,3422.54,-10.1875,35.25,21.8125
343,3432.424,1.90625,-0.2109375,-9.79296875,3432.0409999999997,0.0,0.0,0.0,3432.428,-10.1875,35.625,23.0
344,3442.411,1.9140625,-0.21875,-9.8125,3442.38,0.0,0.0,0.0,3442.318,-9.4375,36.0,23.0
345,3454.2999999999997,1.9140625,-0.26953125,-9.76171875,3452.403,0.0,0.0,0.0,3454.108,-9.8125,36.75,23.0
346,3464.096,1.92578125,-0.23046875,-9.81640625,3462.348,0.0,0.0,0.0,3464.2019999999998,-9.8125,36.75,23.0
347,3473.98,1.93359375,-0.23828125,-9.79296875,3472.432,0.0,0.0,0.0,3474.088,-10.1875,36.375,21.375
348,3483.8230000000003,1.9140625,-0.2578125,-9.8046875,3482.373,0.0,0.0,0.0,3483.829,-9.4375,36.375,21.8125
349,3493.701,1.90625,-0.23046875,-9.796875,3492.452,0.0,0.0,0.0,3493.711,-9.0625,36.0,23.0
350,3503.605,1.88671875,-0.25,-9.7890625,3502.357,0.0,0.0,0.0,3503.611,-9.8125,37.0625,21.8125
351,3513.4979999999996,1.89453125,-0.2578125,-9.80078125,3512.049,0.0,0.0,0.0,3513.507,-10.1875,36.375,23.0
352,3523.3430000000003,1.9140625,-0.21875,-9.8359375,3522.0989999999997,0.0,0.0,0.0,3523.3500000000004,-9.4375,35.625,21.375
353,3533.16,1.88671875,-0.23046875,-9.77734375,3531.911,0.0,0.0,0.0,3533.169,-10.5,36.75,22.1875
354,3543.029,1.90625,-0.2109375,-9.765625,3542.1809999999996,0.0,0.0,0.0,3543.0389999999998,-9.4375,35.25,22.625
355,3553.001,1.953125,-0.26953125,-9.84375,3552.0429999999997,0.0,0.0,0.0,3553.01,-9.4375,36.75,22.625
356,3562.784,1.93359375,-0.27734375,-9.82421875,3562.183,0.0,0.0,0.0,3562.8959999999997,-10.1875,36.375,22.1875
357,3574.681,1.90625,-0.21875,-9.7890625,3572.739,0.0,0.0,0.0,3574.69,-9.8125,35.25,22.1875
358,3582.537,1.90625,-0.23828125,-9.7890625,3582.1200000000003,0.0,0.0,0.0,3582.541,-9.4375,36.375,21.375
359,3592.674,1.90625,-0.25,-9.8125,3592.453,0.0,0.0,0.0,3592.677,-9.8125,36.375,23.0
360,3604.252,1.92578125,-0.23828125,-9.80859375,3602.31,0.0,0.0,0.0,3604.2580000000003,-9.4375,36.0,21.8125
361,3614.296,1.9453125,-0.23828125,-9.8125,3612.45,0.0,0.0,0.0,3614.102,-9.0625,36.0,23.0
362,3624.318,1.88671875,-0.2578125,-9.8515625,3622.422,0.0,0.0,0.0,3624.225,-9.4375,36.375,23.4375
363,3633.812,1.87890625,-0.23828125,-9.76953125,3632.316,0.0,0.0,0.0,3633.918,-9.8125,36.75,22.625
364,3643.775,1.88671875,-0.21875,-9.875,3642.2799999999997,0.0,0.0,0.0,3643.882,-9.0625,36.0,23.0
365,3653.751,1.9140625,-0.2109375,-9.796875,3652.356,0.0,0.0,0.0,3653.757,-9.0625,36.0,21.8125
366,3662.2129999999997,1.9453125,-0.2109375,-9.83984375,3662.179,0.0,0.0,0.0,3662.116,-10.1875,36.375,21.375
367,3672.098,1.90625,-0.19921875,-9.8046875,3672.0640000000003,0.0,0.0,0.0,3672.0009999999997,-9.4375,36.0,21.0
368,3683.458,1.8671875,-0.25,-9.8515625,3681.962,0.0,0.0,0.0,3683.367,-10.1875,36.0,22.625
369,3693.306,1.9453125,-0.2109375,-9.7890625,3692.11,0.0,0.0,0.0,3693.315,-9.8125,36.0,23.0
370,3703.062,1.87890625,-0.23046875,-9.72265625,3702.071,0.0,0.0,0.0,3703.068,-10.5,37.0625,22.1875
371,3713.0480000000002,1.89453125,-0.25,-9.76953125,3711.9399999999996,0.0,0.0,0.0,3713.054,-9.4375,36.75,21.8125
372,3722.928,1.87890625,-0.2109375,-9.77734375,3722.444,0.0,0.0,0.0,3722.938,-9.4375,37.0625,22.625
373,3732.85,1.9140625,-0.21875,-9.8125,3732.2540000000004,0.0,0.0,0.0,3732.857,-9.8125,38.1875,22.625
374,3742.5899999999997,1.9453125,-0.23828125,-9.8046875,3742.085,0.0,0.0,0.0,3742.5969999999998,-8.6875,35.25,23.0
375,3752.516,1.9453125,-0.2109375,-9.84375,3752.1490000000003,0.0,0.0,0.0,3752.52,-9.8125,36.75,22.1875
376,3762.503,1.92578125,-0.23828125,-9.8203125,3762.413,0.0,0.0,0.0,3762.413,-10.1875,36.75,22.1875
377,3774.289,1.9140625,-0.23828125,-9.859375,3772.433,0.0,0.0,0.0,3774.299,-10.1875,36.0,21.375
378,3784.033,1.9140625,-0.23828125,-9.8125,3782.525,0.0,0.0,0.0,3784.1420000000003,-10.1875,36.75,21.8125
379,3794.056,1.92578125,-0.23046875,-9.7890625,3792.35,0.0,0.0,0.0,3794.166,-9.4375,37.4375,23.0
380,3803.794,1.9140625,-0.2578125,-9.8359375,3802.684,0.0,0.0,0.0,3803.9030000000002,-9.4375,36.375,21.8125
381,3813.803,1.87890625,-0.21875,-9.76171875,3812.394,0.0,0.0,0.0,3813.813,-9.4375,36.0,21.8125
382,3823.711,1.92578125,-0.23046875,-9.83984375,3822.777,0.0,0.0,0.0,3823.714,-9.8125,35.625,21.8125
383,3833.477,1.92578125,-0.19140625,-9.76171875,3832.589,0.0,0.0,0.0,3833.5840000000003,-8.6875,35.625,21.8125
384,3843.556,1.89453125,-0.27734375,-9.8046875,3842.244,0.0,0.0,0.0,3843.462,-9.4375,36.375,22.1875
385,3853.281,1.92578125,-0.25,-9.77734375,3852.37,0.0,0.0,0.0,3853.387,-10.1875,36.0,23.8125
386,3863.2360000000003,1.89453125,-0.26953125,-9.81640625,3862.125,0.0,0.0,0.0,3863.3419999999996,-9.4375,35.625,22.625
387,3873.0730000000003,1.9453125,-0.2578125,-9.8359375,3872.154,0.0,0.0,0.0,3873.08,-10.1875,36.75,23.0
388,3883.045,1.93359375,-0.2578125,-9.80078125,3882.341,0.0,0.0,0.0,3882.854,-9.4375,36.75,23.8125
389,3892.88,1.90625,-0.2578125,-9.7734375,3892.465,0.0,0.0,0.0,3892.887,-9.0625,35.625,22.1875
390,3902.7470000000003,1.9140625,-0.23046875,-9.8046875,3902.183,0.0,0.0,0.0,3902.687,-10.5,35.625,24.25
391,3912.6629999999996,1.90625,-0.27734375,-9.83984375,3912.3250000000003,0.0,0.0,0.0,3912.755,-9.8125,36.375,22.1875
392,3922.572,1.90625,-0.21875,-9.796875,3922.4640000000004,0.0,0.0,0.0,3922.478,-10.1875,35.625,22.625
393,3934.311,1.93359375,-0.2578125,-9.8125,3932.25,0.0,0.0,0.0,3934.318,-9.0625,35.625,23.8125
394,3944.34,1.87890625,-0.23046875,-9.81640625,3942.4790000000003,0.0,0.0,0.0,3944.347,-9.4375,36.0,22.1875
395,3954.148,1.93359375,-0.2109375,-9.76953125,3952.438,0.0,0.0,0.0,3954.055,-10.1875,35.625,23.4375
396,3964.047,1.9140625,-0.2109375,-9.7890625,3962.339,0.0,0.0,0.0,3964.156,-9.8125,36.0,23.0
397,3973.815,1.9140625,-0.23828125,-9.79296875,3972.604,0.0,0.0,0.0,3973.8250000000003,-9.8125,36.0,23.0
398,3983.757,1.89453125,-0.23046875,-9.75390625,3982.348,0.0,0.0,0.0,3983.766,-10.1875,36.375,22.1875
399,3993.7,1.89453125,-0.21875,-9.84765625,3992.388,0.0,0.0,0.0,3993.606,-9.4375,36.375,23.0
400,4003.509,1.9453125,-0.2578125,-9.8515625,4002.3,0.0,0.0,0.0,4003.519,-10.1875,36.375,23.4375
401,4013.3419999999996,1.9140625,-0.23046875,-9.80078125,4012.0339999999997,0.0,0.0,0.0,4013.4480000000003,-9.8125,36.75,23.0
402,4023.294,1.9140625,-0.23828125,-9.7578125,4022.183,0.0,0.0,0.0,4023.3999999999996,-10.1875,35.625,22.1875
403,4033.1029999999996,1.90625,-0.25,-9.82421875,4032.0640000000003,0.0,0.0,0.0,4033.2090000000003,-9.4375,36.375,22.625
404,4042.991,1.9140625,-0.2578125,-9.8359375,4042.268,0.0,0.0,0.0,4042.997,-10.1875,37.0625,21.8125
405,4052.9400000000005,1.89453125,-0.23828125,-9.82421875,4052.3230000000003,0.0,0.0,0.0,4052.9469999999997,-10.1875,35.25,23.0
406,4062.8710000000005,1.93359375,-0.2578125,-9.80078125,4062.256,0.0,0.0,0.0,4062.881,-10.1875,37.0625,23.0
407,4074.7410000000004,1.93359375,-0.21875,-9.82421875,4072.62,0.0,0.0,0.0,4074.6479999999997,-10.1875,35.25,23.4375
408,4082.698,1.89453125,-0.25,-9.8203125,4082.3140000000003,0.0,0.0,0.0,4082.701,-9.0625,36.0,22.625
409,4092.5159999999996,1.93359375,-0.23046875,-9.79296875,4092.4880000000003,0.0,0.0,0.0,4092.4250000000006,-9.4375,35.25,22.1875
410,4104.357,1.93359375,-0.23828125,-9.8046875,4102.496,0.0,0.0,0.0,4104.363,-10.5,35.25,22.625
411,4114.156999999999,1.87890625,-0.2578125,-9.85546875,4112.661,0.0,0.0,0.0,4114.264,-9.8125,36.75,23.4375
412,4124.065,1.90625,-0.18359375,-9.7890625,4122.366999999999,0.0,0.0,0.0,4124.170999999999,-8.6875,36.0,21.375
413,4134.013000000001,1.89453125,-0.23046875,-9.8046875,4132.514999999999,0.0,0.0,0.0,4133.92,-9.4375,36.375,22.1875
414,4143.741,1.90625,-0.2109375,-9.80078125,4142.544,0.0,0.0,0.0,4143.7480000000005,-9.8125,36.375,21.375
415,4153.659000000001,1.953125,-0.23046875,-9.8515625,4152.261,0.0,0.0,0.0,4153.668,-10.5,36.75,23.0
416,4163.606,1.88671875,-0.21875,-9.77734375,4162.110000000001,0.0,0.0,0.0,4163.5160000000005,-9.0625,36.0,22.1875
417,4173.391,1.9140625,-0.19921875,-9.7890625,4172.293,0.0,0.0,0.0,4173.5,-10.1875,36.0,22.1875
418,4183.236,1.88671875,-0.21875,-9.8046875,4182.238,0.0,0.0,0.0,4183.245999999999,-10.1875,35.625,22.1875
419,4193.175,1.92578125,-0.25,-9.8046875,4192.077,0.0,0.0,0.0,4193.285000000001,-10.1875,35.625,22.625
420,4203.047,1.90625,-0.26953125,-9.8359375,4202.128,0.0,0.0,0.0,4203.057000000001,-9.4375,36.375,21.8125
421,4213.035,1.89453125,-0.26953125,-9.75,4212.332,0.0,0.0,0.0,4212.843999999999,-9.0625,36.375,21.8125
422,4222.795,1.90625,-0.23828125,-9.7890625,4222.231,0.0,0.0,0.0,4222.921,-9.0625,36.375,23.4375
423,4232.663,1.90625,-0.23828125,-9.796875,4232.146000000001,0.0,0.0,0.0,4232.67,-9.4375,36.375,21.8125
424,4242.559,1.90625,-0.25,-9.8515625,4242.178,0.0,0.0,0.0,4242.562000000001,-10.1875,36.0,22.625
425,4252.562,1.92578125,-0.25,-9.82421875,4252.532,0.0,0.0,0.0,4252.469,-9.0625,36.0,22.1875
426,4264.4169999999995,1.92578125,-0.23046875,-9.76953125,4262.519,0.0,0.0,0.0,4264.423,-9.4375,36.75,22.1875
427,4274.214,1.88671875,-0.23828125,-9.80078125,4272.679,0.0,0.0,0.0,4274.321,-9.4375,36.375,22.625
428,4284.12,1.92578125,-0.23828125,-9.796875,4282.585,0.0,0.0,0.0,4284.226000000001,-10.1875,35.625,22.625
429,4293.945,1.90625,-0.26953125,-9.79296875,4292.611,0.0,0.0,0.0,4294.052,-9.4375,36.75,23.0
430,4303.883,1.89453125,-0.26953125,-9.83984375,4302.447,0.0,0.0,0.0,4303.889,-9.0625,36.0,21.0
431,4313.767000000001,1.92578125,-0.23828125,-9.84375,4312.331999999999,0.0,0.0,0.0,4313.777,-10.1875,36.375,22.1875
432,4323.552000000001,1.89453125,-0.2578125,-9.77734375,4322.317,0.0,0.0,0.0,4323.558,-9.4375,36.75,22.625
433,4335.455,1.88671875,-0.23828125,-9.80078125,4333.371999999999,0.0,0.0,0.0,4335.460999999999,-9.8125,34.9375,23.4375
434,4343.391,1.90625,-0.23828125,-9.81640625,4342.256,0.0,0.0,0.0,4343.497,-10.1875,36.75,21.8125
435,4353.196,1.9140625,-0.23828125,-9.859375,4352.362,0.0,0.0,0.0,4353.204,-9.8125,36.0,22.1875
436,4363.16,1.9140625,-0.27734375,-9.8125,4362.198,0.0,0.0,0.0,4363.165999999999,-9.0625,36.0,21.8125
437,4373.04,1.89453125,-0.19140625,-9.8046875,4372.526,0.0,0.0,0.0,4373.063,-9.0625,36.375,21.8125
438,4382.794,1.92578125,-0.26953125,-9.80078125,4382.272999999999,0.0,0.0,0.0,4382.803,-9.8125,37.0625,22.625
439,4392.774,1.88671875,-0.2578125,-9.8046875,4392.418000000001,0.0,0.0,0.0,4392.795999999999,-9.8125,36.75,23.0
440,4402.829,1.89453125,-0.26953125,-9.7890625,4402.405,0.0,0.0,0.0,4402.832,-9.4375,36.0,21.375
441,4412.503,1.89453125,-0.23828125,-9.80078125,4412.373,0.0,0.0,0.0,4412.509,-10.1875,36.375,21.8125
442,4424.441,1.90625,-0.25,-9.77734375,4422.598,0.0,0.0,0.0,4424.447,-9.4375,35.625,23.0
443,4434.259,1.9140625,-0.21875,-9.8046875,4432.578,0.0,0.0,0.0,4434.366,-10.5,36.0,22.625
444,4444.194,1.92578125,-0.21875,-9.7890625,4442.513,0.0,0.0,0.0,4444.3,-9.8125,36.0,22.625
445,4454.16,1.89453125,-0.23046875,-9.765625,4452.478,0.0,0.0,0.0,4454.066,-9.8125,35.625,23.0
446,4463.99,1.90625,-0.2109375,-9.8515625,4462.509,0.0,0.0,0.0,4463.896,-9.4375,35.625,23.4375
447,4473.866,1.87890625,-0.23828125,-9.76953125,4472.4259999999995,0.0,0.0,0.0,4473.773,-9.4375,35.625,22.1875
448,4482.261,1.88671875,-0.23046875,-9.7578125,4482.228,0.0,0.0,0.0,4482.164,-9.8125,35.625,22.625
449,4493.576,1.92578125,-0.23046875,-9.76953125,4492.193,0.0,0.0,0.0,4493.582,-9.8125,36.375,21.0
450,4503.451,1.90625,-0.26953125,-9.73828125,4502.0689999999995,0.0,0.0,0.0,4503.457,-10.5,35.625,22.625
451,4513.228,1.89453125,-0.2578125,-9.7578125,4512.247,0.0,0.0,0.0,4513.2339999999995,-9.4375,35.625,23.8125
452,4523.176,1.89453125,-0.23828125,-9.82421875,4522.171,0.0,0.0,0.0,4523.285,-9.8125,37.0625,22.625
453,4533.096,1.92578125,-0.23828125,-9.8203125,4532.389,0.0,0.0,0.0,4533.103,-10.1875,36.0,22.625
454,4543.0109999999995,1.89453125,-0.23046875,-9.8359375,4542.413,0.0,0.0,0.0,4543.021000000001,-9.8125,36.375,22.1875
455,4552.826999999999,1.90625,-0.23046875,-9.7890625,4552.303,0.0,0.0,0.0,4552.754,-8.6875,35.625,21.0
456,4562.69,1.88671875,-0.23046875,-9.80078125,4562.325000000001,0.0,0.0,0.0,4562.6939999999995,-9.8125,35.25,23.4375
457,4574.5740000000005,1.89453125,-0.27734375,-9.765625,4572.576,0.0,0.0,0.0,4574.383,-9.4375,36.0,23.0
458,4582.569,1.89453125,-0.23828125,-9.77734375,4582.58,0.0,0.0,0.0,4582.576,-10.5,36.75,23.0
459,4594.449,1.88671875,-0.25,-9.7734375,4592.608,0.0,0.0,0.0,4594.459,-8.6875,35.625,22.625
460,4604.046,1.9453125,-0.23828125,-9.80078125,4602.766,0.0,0.0,0.0,4604.155000000001,-9.0625,35.625,23.0
461,4613.981,1.87890625,-0.18359375,-9.8203125,4612.499,0.0,0.0,0.0,4614.091,-9.8125,35.625,21.8125
462,4624.044,1.88671875,-0.21875,-9.8046875,4622.56,0.0,0.0,0.0,4623.953,-10.875,35.625,22.625
463,4633.8460000000005,1.89453125,-0.2578125,-9.8125,4632.403,0.0,0.0,0.0,4633.952,-10.1875,35.25,23.4375
464,4643.83,1.92578125,-0.23046875,-9.81640625,4642.551,0.0,0.0,0.0,4643.737,-9.8125,36.75,22.625
465,4653.5830000000005,1.859375,-0.21875,-9.859375,4652.203,0.0,0.0,0.0,4653.593,-9.0625,35.625,23.4375
466,4663.456,1.89453125,-0.23046875,-9.77734375,4662.079000000001,0.0,0.0,0.0,4663.465,-10.1875,36.375,22.625
467,4673.282999999999,1.90625,-0.21875,-9.84375,4672.107,0.0,0.0,0.0,4673.293000000001,-9.8125,36.0,23.4375
468,4683.271000000001,1.953125,-0.21875,-9.8125,4682.187,0.0,0.0,0.0,4683.379999999999,-9.4375,34.5625,22.625
469,4693.147,1.90625,-0.23046875,-9.76953125,4692.443,0.0,0.0,0.0,4693.157,-9.0625,35.625,21.8125
470,4703.055,1.89453125,-0.18359375,-9.765625,4702.456,0.0,0.0,0.0,4703.064,-9.4375,36.0,21.8125
471,4712.964999999999,1.87890625,-0.19921875,-9.8359375,4712.361,0.0,0.0,0.0,4712.772,-9.4375,35.625,23.0
472,4722.840999999999,1.89453125,-0.21875,-9.765625,4722.339,0.0,0.0,0.0,4722.914000000001,-10.1875,36.75,21.8125
473,4732.655000000001,1.90625,-0.23828125,-9.81640625,4732.6050000000005,0.0,0.0,0.0,4732.662,-9.0625,35.25,23.0
474,4742.593,1.96484375,-0.26953125,-9.796875,4742.568,0.0,0.0,0.0,4742.7029999999995,-9.8125,35.625,23.0
475,4754.451999999999,1.953125,-0.23046875,-9.80078125,4752.596,0.0,0.0,0.0,4754.462,-9.4375,35.25,20.1875
476,4764.166,1.89453125,-0.27734375,-9.7578125,4762.669,0.0,0.0,0.0,4764.275,-9.8125,36.0,22.625
477,4774.173,1.93359375,-0.23046875,-9.79296875,4772.679,0.0,0.0,0.0,4774.282999999999,-10.5,35.25,22.1875
478,4783.9710000000005,1.89453125,-0.21875,-9.82421875,4782.8730000000005,0.0,0.0,0.0,4784.077,-9.4375,37.4375,22.1875
479,4793.857,1.88671875,-0.25,-9.80859375,4792.7609999999995,0.0,0.0,0.0,4793.964,-10.5,36.75,21.375
480,4803.701,1.9140625,-0.18359375,-9.8515625,4802.603999999999,0.0,0.0,0.0,4803.807,-10.875,35.25,23.4375
481,4813.566,1.92578125,-0.23828125,-9.80859375,4812.469,0.0,0.0,0.0,4813.673,-8.6875,37.4375,22.1875
482,4823.473,1.9453125,-0.23828125,-9.8359375,4822.375,0.0,0.0,0.0,4823.579,-9.4375,36.75,22.1875
483,4833.468,1.87890625,-0.19140625,-9.76953125,4832.272,0.0,0.0,0.0,4833.475,-9.4375,36.375,23.4375
484,4843.358,1.90625,-0.21875,-9.83984375,4843.3279999999995,0.0,0.0,0.0,4843.465,-9.4375,37.4375,20.5625
485,4853.22,1.90625,-0.23046875,-9.76953125,4852.598,0.0,0.0,0.0,4853.329,-8.3125,36.0,23.4375
486,4863.111,1.92578125,-0.2578125,-9.76953125,4862.408,0.0,0.0,0.0,4863.125,-10.1875,37.0625,23.0
487,4872.923,1.89453125,-0.23828125,-9.79296875,4872.358,0.0,0.0,0.0,4872.8460000000005,-10.5,35.625,22.1875
488,4882.7480000000005,1.89453125,-0.26953125,-9.734375,4882.365,0.0,0.0,0.0,4882.751,-9.0625,36.375,22.1875
489,4892.671,1.90625,-0.25,-9.8359375,4892.633,0.0,0.0,0.0,4892.674,-10.1875,36.0,22.1875
490,4902.659,1.9140625,-0.25,-9.85546875,4902.633,0.0,0.0,0.0,4902.768,-9.0625,36.0,22.625
491,4914.285,1.93359375,-0.23828125,-9.8046875,4912.628,0.0,0.0,0.0,4914.294,-9.8125,36.0,21.8125
492,4924.404,1.93359375,-0.25,-9.80859375,4922.7080000000005,0.0,0.0,0.0,4924.414,-9.0625,36.375,22.1875
493,4934.075,1.92578125,-0.23046875,-9.75,4932.777,0.0,0.0,0.0,4934.184,-10.5,35.25,22.1875
494,4943.983,1.93359375,-0.2109375,-9.8203125,4942.485,0.0,0.0,0.0,4944.089,-9.8125,36.0,23.0
495,4953.959,1.90625,-0.23828125,-9.81640625,4952.759,0.0,0.0,0.0,4953.965,-10.1875,36.375,21.8125
496,4963.880999999999,1.9140625,-0.26953125,-9.796875,4962.383,0.0,0.0,0.0,4963.987,-9.0625,36.0,23.0
497,4973.703,1.9140625,-0.21875,-9.80078125,4972.5070000000005,0.0,0.0,0.0,4973.71,-10.1875,36.375,23.4375
498,4983.54,1.87890625,-0.25,-9.8125,4982.242,0.0,0.0,0.0,4983.646000000001,-9.0625,36.0,22.1875
499,4993.534000000001,1.88671875,-0.21875,-9.82421875,4992.438,0.0,0.0,0.0,4993.441,-9.0625,35.25,22.1875
500,5003.362,1.92578125,-0.2578125,-9.7734375,5002.264,0.0,0.0,0.0,5003.468,-10.5,36.75,21.8125
501,5013.1990000000005,1.9140625,-0.2109375,-9.76171875,5012.276,0.0,0.0,0.0,5013.206,-9.4375,36.75,22.1875
502,5023.18,1.9140625,-0.23828125,-9.79296875,5022.472,0.0,0.0,0.0,5022.986000000001,-9.8125,36.0,21.375
503,5033.071,1.92578125,-0.23828125,-9.76953125,5032.457,0.0,0.0,0.0,5032.880999999999,-9.8125,35.25,22.625
504,5042.843000000001,1.9453125,-0.25,-9.76953125,5042.302000000001,0.0,0.0,0.0,5042.852,-10.1875,36.75,23.4375
505,5052.702,1.9140625,-0.296875,-9.81640625,5052.522,0.0,0.0,0.0,5052.708,-10.1875,35.625,22.625
506,5062.601,1.90625,-0.21875,-9.8203125,5062.474,0.0,0.0,0.0,5062.607,-10.1875,36.0,23.0
507,5074.339,1.9453125,-0.2578125,-9.84765625,5072.683,0.0,0.0,0.0,5074.345,-9.8125,36.0,23.0
508,5084.286999999999,1.93359375,-0.23828125,-9.79296875,5082.59,0.0,0.0,0.0,5084.397,-9.0625,36.0,22.625
509,5094.369000000001,1.87890625,-0.23828125,-9.7734375,5092.813999999999,0.0,0.0,0.0,5094.281,-9.8125,36.375,21.375
510,5104.040999999999,1.9140625,-0.2578125,-9.765625,5102.747,0.0,0.0,0.0,5104.15,-9.4375,36.375,23.0
511,5113.982,1.98046875,-0.23046875,-9.8046875,5112.708,0.0,0.0,0.0,5114.092000000001,-9.8125,34.9375,21.8125
512,5122.211,1.87890625,-0.23046875,-9.7734375,5122.24,0.0,0.0,0.0,5122.223,-9.4375,36.0,22.625
513,5133.673,1.93359375,-0.21875,-9.82421875,5132.192,0.0,0.0,0.0,5133.782,-8.3125,36.0,22.1875
514,5143.583,1.92578125,-0.25,-9.79296875,5142.602,0.0,0.0,0.0,5143.593,-9.8125,36.0,22.1875
515,5153.5109999999995,1.8671875,-0.19921875,-9.8125,5152.234,0.0,0.0,0.0,5153.621,-9.8125,36.0,23.0
516,5163.393,1.93359375,-0.23046875,-9.8046875,5162.513,0.0,0.0,0.0,5163.303,-9.8125,36.0,22.625
517,5173.377,1.89453125,-0.23046875,-9.80078125,5172.356,0.0,0.0,0.0,5173.287,-10.1875,36.375,22.1875
518,5183.226000000001,1.92578125,-0.21875,-9.7890625,5182.609,0.0,0.0,0.0,5183.232,-9.8125,35.625,22.625
519,5193.118,1.92578125,-0.26953125,-9.77734375,5192.415,0.0,0.0,0.0,5192.932,-10.1875,35.625,22.625
520,5202.809,1.88671875,-0.23046875,-9.82421875,5202.249,0.0,0.0,0.0,5202.9220000000005,-9.8125,34.5625,22.625
521,5212.7119999999995,1.88671875,-0.23828125,-9.79296875,5212.396,0.0,0.0,0.0,5212.821,-9.8125,35.25,23.4375
522,5222.639,1.97265625,-0.25,-9.8125,5222.6,0.0,0.0,0.0,5222.643,-9.8125,36.0,23.0
523,5232.677,1.88671875,-0.2578125,-9.77734375,5232.847,0.0,0.0,0.0,5232.784,-9.4375,36.0,22.625
524,5244.438,1.9140625,-0.27734375,-9.82421875,5242.816000000001,0.0,0.0,0.0,5244.4439999999995,-9.4375,36.75,23.8125
525,5254.302,1.90625,-0.21875,-9.80859375,5252.681,0.0,0.0,0.0,5254.409,-9.8125,37.0625,23.0
526,5264.155,1.92578125,-0.23046875,-9.7890625,5262.7300000000005,0.0,0.0,0.0,5264.264,-9.4375,36.375,22.1875
527,5274.081,1.88671875,-0.21875,-9.79296875,5272.856,0.0,0.0,0.0,5274.19,-9.4375,36.375,23.0
528,5283.869000000001,1.87890625,-0.23828125,-9.83984375,5282.543000000001,0.0,0.0,0.0,5283.875,-10.1875,36.375,22.1875
529,5293.857,1.93359375,-0.23828125,-9.7578125,5292.432,0.0,0.0,0.0,5293.964,-9.8125,36.375,21.8125
530,5303.689,1.93359375,-0.23046875,-9.80078125,5302.464,0.0,0.0,0.0,5303.795,-10.5,35.625,22.625
531,5313.491,1.9140625,-0.2578125,-9.8125,5312.2660000000005,0.0,0.0,0.0,5313.598,-9.8125,35.625,23.0
532,5323.409,1.92578125,-0.26953125,-9.8046875,5322.583,0.0,0.0,0.0,5323.515,-8.6875,36.375,22.1875
533,5333.299,1.89453125,-0.25,-9.83984375,5332.302000000001,0.0,0.0,0.0,5333.3060000000005,-9.4375,36.75,23.0
534,5343.318,1.93359375,-0.2109375,-9.76171875,5342.571999999999,0.0,0.0,0.0,5343.324,-9.4375,36.75,23.0
535,5355.142,1.89453125,-0.19921875,-9.80859375,5353.1,0.0,0.0,0.0,5355.151,-9.8125,36.0,21.375
536,5363.089000000001,1.89453125,-0.26953125,-9.796875,5362.544,0.0,0.0,0.0,5363.095,-9.0625,36.0,23.4375
537,5372.8550000000005,1.9140625,-0.23828125,-9.79296875,5372.495,0.0,0.0,0.0,5372.763,-10.1875,36.375,21.8125
538,5382.686,1.93359375,-0.23046875,-9.82421875,5382.634,0.0,0.0,0.0,5382.692,-9.0625,35.625,22.1875
539,5392.696,1.92578125,-0.25,-9.7578125,5392.668,0.0,0.0,0.0,5392.805,-10.1875,37.0625,22.1875
540,5404.476,1.9140625,-0.21875,-9.875,5402.8330000000005,0.0,0.0,0.0,5404.485000000001,-9.4375,36.375,22.625
541,5414.314,1.9140625,-0.2890625,-9.86328125,5412.741999999999,0.0,0.0,0.0,5414.424,-9.4375,35.25,22.1875
542,5424.229,1.90625,-0.21875,-9.81640625,5422.656,0.0,0.0,0.0,5424.335,-8.6875,35.25,21.4375
543,5434.095,1.9140625,-0.19921875,-9.8203125,5432.722,0.0,0.0,0.0,5434.202,-10.1875,36.375,22.625
544,5442.603,1.89453125,-0.2109375,-9.76953125,5442.57,0.0,0.0,0.0,5442.507,-9.0625,35.625,22.1875
545,5452.491,1.9140625,-0.21875,-9.8046875,5452.458,0.0,0.0,0.0,5452.396000000001,-9.4375,36.375,22.625
546,5463.746999999999,1.97265625,-0.25,-9.82421875,5462.374,0.0,0.0,0.0,5463.853,-10.1875,36.375,21.4375
547,5473.647,1.89453125,-0.2578125,-9.79296875,5472.273999999999,0.0,0.0,0.0,5473.554,-9.0625,36.75,22.625
548,5483.4490000000005,1.89453125,-0.23046875,-9.8515625,5482.276,0.0,0.0,0.0,5483.555,-10.1875,36.75,22.625
549,5493.362,1.9453125,-0.2578125,-9.7578125,5492.39,0.0,0.0,0.0,5493.469,-9.4375,36.0,22.625
550,5503.291,1.93359375,-0.23046875,-9.8125,5502.481000000001,0.0,0.0,0.0,5503.397,-10.1875,36.375,20.1875
551,5513.148,1.90625,-0.23828125,-9.8203125,5512.64,0.0,0.0,0.0,5513.155000000001,-10.1875,36.75,22.1875
552,5523.052,1.9140625,-0.23046875,-9.765625,5522.545,0.0,0.0,0.0,5523.058,-9.8125,37.4375,23.0
553,5532.82,1.88671875,-0.2109375,-9.8203125,5532.4220000000005,0.0,0.0,0.0,5532.83,-10.5,36.375,21.4375
554,5544.84,1.92578125,-0.21875,-9.7734375,5542.737,0.0,0.0,0.0,5544.846,-10.1875,36.375,22.625
555,5552.780000000001,1.87890625,-0.23828125,-9.80859375,5552.749000000001,0.0,0.0,0.0,5552.686,-9.4375,36.0,23.0
556,5564.6269999999995,1.88671875,-0.23046875,-9.765625,5562.766,0.0,0.0,0.0,5564.634,-9.4375,35.625,23.0
557,5574.3330000000005,1.9140625,-0.26953125,-9.72265625,5572.82,0.0,0.0,0.0,5574.441,-9.8125,36.0,22.1875
558,5584.34,1.92578125,-0.19921875,-9.8515625,5582.830000000001,0.0,0.0,0.0,5584.4490000000005,-10.1875,36.75,21.4375
559,5594.191000000001,1.90625,-0.23828125,-9.83984375,5592.782999999999,0.0,0.0,0.0,5594.202,-9.0625,36.0,23.0
560,5604.151,1.90625,-0.2890625,-9.7578125,5602.762000000001,0.0,0.0,0.0,5604.058,-9.4375,36.75,22.625
561,5613.898,1.96484375,-0.23046875,-9.80078125,5612.786,0.0,0.0,0.0,5614.008,-9.4375,36.0,23.4375
562,5623.783,1.88671875,-0.23828125,-9.7578125,5622.674,0.0,0.0,0.0,5623.892,-9.4375,37.4375,22.625
563,5633.639999999999,1.87890625,-0.2890625,-9.75390625,5632.727,0.0,0.0,0.0,5633.746999999999,-9.0625,36.0,21.0
564,5643.585,1.89453125,-0.25,-9.76171875,5642.475,0.0,0.0,0.0,5643.691,-10.5,37.0625,23.0
565,5653.436,1.953125,-0.2109375,-9.76953125,5652.415999999999,0.0,0.0,0.0,5653.343,-10.5,35.625,22.1875
566,5663.416,1.89453125,-0.23046875,-9.765625,5662.394,0.0,0.0,0.0,5663.325000000001,-9.8125,36.375,21.0
567,5673.275000000001,1.88671875,-0.2109375,-9.76953125,5672.572,0.0,0.0,0.0,5673.285,-10.1875,36.0,22.625
568,5683.155,1.90625,-0.27734375,-9.83984375,5682.54,0.0,0.0,0.0,5682.965,-9.4375,36.375,22.1875
569,5693.117,1.9140625,-0.27734375,-9.82421875,5692.536999999999,0.0,0.0,0.0,5693.124,-9.4375,36.375,22.1875
570,5702.856,1.87890625,-0.21875,-9.84375,5702.82,0.0,0.0,0.0,5702.860000000001,-9.8125,36.75,22.625
571,5712.759,1.9140625,-0.25,-9.86328125,5712.83,0.0,0.0,0.0,5712.7660000000005,-9.0625,35.625,22.625
572,5724.478999999999,1.92578125,-0.21875,-9.7890625,5722.819,0.0,0.0,0.0,5724.486,-9.0625,36.375,22.1875
573,5734.483,1.92578125,-0.21875,-9.76953125,5732.9710000000005,0.0,0.0,0.0,5734.589,-9.8125,36.375,23.0
574,5744.183999999999,1.90625,-0.23828125,-9.76953125,5742.8730000000005,0.0,0.0,0.0,5744.290999999999,-9.4375,35.25,22.1875
575,5754.222000000001,1.9140625,-0.21875,-9.8046875,5752.806,0.0,0.0,0.0,5754.234,-9.4375,36.0,22.625
576,5764.199,1.89453125,-0.2578125,-9.77734375,5762.687,0.0,0.0,0.0,5764.108,-10.1875,34.9375,22.625
577,5773.938,1.90625,-0.2578125,-9.76953125,5773.027,0.0,0.0,0.0,5774.0470000000005,-9.0625,36.0,22.625
578,5783.811,1.93359375,-0.23828125,-9.765625,5782.699,0.0,0.0,0.0,5783.9169999999995,-9.0625,36.375,23.0
579,5793.697,1.9140625,-0.2578125,-9.765625,5792.786,0.0,0.0,0.0,5793.804,-9.8125,36.75,21.375
580,5803.538,1.88671875,-0.23046875,-9.7578125,5802.527,0.0,0.0,0.0,5803.544,-10.5,35.625,22.625
581,5813.505,1.90625,-0.19921875,-9.82421875,5812.595,0.0,0.0,0.0,5813.612,-10.5,36.375,23.0
582,5823.342000000001,1.9140625,-0.2578125,-9.82421875,5822.622,0.0,0.0,0.0,5823.348,-9.4375,36.375,21.8125
583,5833.282999999999,1.92578125,-0.19921875,-9.8359375,5832.469,0.0,0.0,0.0,5833.293000000001,-9.8125,35.25,22.625
584,5843.206,1.92578125,-0.2578125,-9.80859375,5842.592,0.0,0.0,0.0,5843.213000000001,-9.4375,35.25,23.4375
585,5855.044000000001,1.88671875,-0.2109375,-9.80859375,5853.042,0.0,0.0,0.0,5855.0509999999995,-10.1875,35.625,22.1875
586,5864.8949999999995,1.89453125,-0.2109375,-9.83984375,5862.861,0.0,0.0,0.0,5864.701,-10.1875,36.375,22.625
587,5872.756,1.90625,-0.23828125,-9.7890625,5872.629,0.0,0.0,0.0,5872.765,-10.5,36.0,22.1875
588,5884.496,1.9140625,-0.21875,-9.8125,5882.84,0.0,0.0,0.0,5884.505,-10.1875,35.25,23.4375
589,5894.491,1.9140625,-0.26953125,-9.7890625,5892.985000000001,0.0,0.0,0.0,5894.601,-9.4375,37.125,23.0
590,5904.465,1.96484375,-0.25,-9.7890625,5902.754,0.0,0.0,0.0,5904.5740000000005,-10.1875,36.75,22.1875
591,5914.167,1.93359375,-0.2109375,-9.75,5912.857,0.0,0.0,0.0,5914.277,-9.8125,37.125,21.8125
592,5924.143,1.9140625,-0.23046875,-9.79296875,5922.932000000001,0.0,0.0,0.0,5924.152,-9.4375,36.75,23.4375
593,5934.031,1.9140625,-0.19921875,-9.7890625,5932.822,0.0,0.0,0.0,5934.040999999999,-9.4375,35.625,21.4375
594,5943.908,1.92578125,-0.23046875,-9.81640625,5942.498,0.0,0.0,0.0,5943.914000000001,-10.1875,35.625,23.0
595,5953.87,1.92578125,-0.23046875,-9.80859375,5952.559,0.0,0.0,0.0,5953.7789999999995,-9.4375,36.75,22.625
596,5963.688,1.89453125,-0.2578125,-9.80078125,5962.377,0.0,0.0,0.0,5963.795,-9.4375,36.375,23.0
597,5973.542,1.93359375,-0.2578125,-9.82421875,5972.634,0.0,0.0,0.0,5973.448,-9.0625,36.375,23.4375
598,5983.514999999999,1.90625,-0.2578125,-9.84375,5982.498,0.0,0.0,0.0,5983.425,-9.4375,36.0,22.625
599,5993.389999999999,1.93359375,-0.23046875,-9.79296875,5992.7789999999995,0.0,0.0,0.0,5993.196,-9.4375,35.25,22.625
600,6003.233,1.88671875,-0.23828125,-9.82421875,6002.62,0.0,0.0,0.0,6003.243,-9.0625,36.75,22.1875
601,6013.162,1.88671875,-0.2109375,-9.76953125,6012.782999999999,0.0,0.0,0.0,6013.169000000001,-9.8125,35.625,22.1875
602,6022.9,1.92578125,-0.19140625,-9.81640625,6022.921,0.0,0.0,0.0,6022.907,-10.5,36.375,21.4375
603,6032.806,1.9140625,-0.19921875,-9.75,6032.68,0.0,0.0,0.0,6032.816000000001,-10.1875,36.75,23.0
604,6044.742,1.90625,-0.21875,-9.796875,6042.892,0.0,0.0,0.0,6044.7519999999995,-9.0625,36.375,22.625
605,6054.552000000001,1.9140625,-0.23046875,-9.8046875,6053.04,0.0,0.0,0.0,6054.661,-10.5,36.75,23.4375
606,6064.418,1.93359375,-0.2109375,-9.80859375,6062.912,0.0,0.0,0.0,6064.527,-9.8125,36.375,23.0
607,6074.251,1.92578125,-0.2109375,-9.82421875,6072.943,0.0,0.0,0.0,6074.357,-9.8125,37.125,22.625
608,6084.186,1.89453125,-0.25,-9.84375,6082.779,0.0,0.0,0.0,6084.193,-9.8125,36.75,21.4375
609,6094.077,1.92578125,-0.18359375,-9.7734375,6092.669,0.0,0.0,0.0,6094.084,-9.8125,36.375,23.0
610,6103.864,1.88671875,-0.25,-9.75,6102.654,0.0,0.0,0.0,6103.875,-10.1875,35.625,21.4375
611,6115.808999999999,1.9140625,-0.2578125,-9.73046875,6113.862,0.0,0.0,0.0,6115.821000000001,-9.8125,36.375,22.625
612,6123.716,1.90625,-0.23046875,-9.76953125,6122.405,0.0,0.0,0.0,6123.826,-9.8125,35.625,22.625
613,6133.499,1.9453125,-0.23046875,-9.82421875,6132.688,0.0,0.0,0.0,6133.509,-9.8125,36.75,22.625
614,6143.565,1.9140625,-0.21875,-9.79296875,6142.546,0.0,0.0,0.0,6143.474999999999,-9.8125,36.75,23.0
615,6153.418000000001,1.90625,-0.23828125,-9.7734375,6152.803,0.0,0.0,0.0,6153.427,-9.0625,36.0,22.625
616,6163.287,1.89453125,-0.25,-9.80859375,6162.673,0.0,0.0,0.0,6163.093,-9.0625,36.375,21.8125
617,6173.218000000001,1.93359375,-0.19140625,-9.79296875,6172.500999999999,0.0,0.0,0.0,6173.287,-10.5,36.375,23.4375
618,6184.983,1.9453125,-0.23046875,-9.77734375,6182.634,0.0,0.0,0.0,6184.99,-9.0625,36.75,22.625
619,6192.773,1.92578125,-0.21875,-9.80859375,6192.682,0.0,0.0,0.0,6192.882,-9.4375,36.0,22.1875
620,6204.793,1.89453125,-0.21875,-9.84765625,6202.9,0.0,0.0,0.0,6204.602000000001,-9.4375,36.75,22.625
621,6214.543,1.9140625,-0.2109375,-9.7265625,6212.795,0.0,0.0,0.0,6214.653,-9.0625,34.1875,23.0
622,6224.575,1.90625,-0.19921875,-9.765625,6222.826,0.0,0.0,0.0,6224.481,-9.8125,36.75,21.8125
623,6234.249,1.9140625,-0.23828125,-9.82421875,6232.901,0.0,0.0,0.0,6234.356,-9.4375,36.0,22.625
624,6244.263,1.89453125,-0.171875,-9.77734375,6242.833,0.0,0.0,0.0,6244.269,-9.4375,37.125,22.1875
625,6254.158,1.93359375,-0.2578125,-9.8046875,6252.722000000001,0.0,0.0,0.0,6254.1669999999995,-10.1875,35.25,23.4375
626,6263.982999999999,1.89453125,-0.26953125,-9.80859375,6262.7480000000005,0.0,0.0,0.0,6263.99,-10.1875,35.625,22.625
627,6273.864,1.89453125,-0.2109375,-9.85546875,6272.63,0.0,0.0,0.0,6273.871,-9.8125,37.4375,21.8125
628,6283.687,1.90625,-0.19140625,-9.796875,6282.452,0.0,0.0,0.0,6283.693,-8.6875,36.375,23.0
629,6293.693,1.93359375,-0.23828125,-9.82421875,6292.559,0.0,0.0,0.0,6293.801,-9.8125,35.625,23.0
630,6303.531999999999,1.9140625,-0.23046875,-9.79296875,6302.574,0.0,0.0,0.0,6303.538,-9.4375,37.125,22.25
631,6313.505,1.9453125,-0.2578125,-9.8359375,6312.761,0.0,0.0,0.0,6313.511,-9.8125,35.25,21.4375
632,6323.371,1.9140625,-0.23828125,-9.8125,6322.829,0.0,0.0,0.0,6323.38,-9.8125,36.375,22.625
633,6333.158,1.9140625,-0.21875,-9.84765625,6332.706,0.0,0.0,0.0,6333.179999999999,-9.8125,36.0,22.625
634,6342.991,1.9453125,-0.25,-9.81640625,6342.574,0.0,0.0,0.0,6342.994,-9.4375,36.375,22.625
635,6354.969999999999,1.92578125,-0.23046875,-9.8203125,6352.928000000001,0.0,0.0,0.0,6354.979,-9.0625,36.375,23.0
636,6364.947,1.88671875,-0.21875,-9.8359375,6363.047,0.0,0.0,0.0,6364.753000000001,-9.4375,36.75,22.1875
637,6374.796,1.9140625,-0.25,-9.83984375,6372.955,0.0,0.0,0.0,6374.807,-9.0625,35.625,22.625
638,6384.3730000000005,1.9140625,-0.25,-9.83984375,6383.089,0.0,0.0,0.0,6384.482,-9.8125,36.375,22.25
639,6394.317,1.92578125,-0.19921875,-9.8125,6392.857,0.0,0.0,0.0,6394.424,-9.4375,36.0,23.0
640,6404.347,1.93359375,-0.25,-9.7890625,6402.862,0.0,0.0,0.0,6404.453,-9.8125,36.375,21.8125
641,6414.19,1.92578125,-0.23046875,-9.76953125,6412.807,0.0,0.0,0.0,6414.197,-9.4375,36.375,22.625
642,6424.019,1.92578125,-0.23828125,-9.80859375,6422.84,0.0,0.0,0.0,6424.03,-9.4375,35.25,22.1875
643,6433.888,1.9140625,-0.296875,-9.796875,6432.647,0.0,0.0,0.0,6433.999,-9.8125,36.75,21.4375
644,6443.804,1.87890625,-0.21875,-9.87890625,6442.52,0.0,0.0,0.0,6443.71,-10.1875,36.375,23.0
645,6453.729,1.90625,-0.21875,-9.8203125,6452.649,0.0,0.0,0.0,6453.836,-9.4375,37.4375,23.4375
646,6463.5109999999995,1.9140625,-0.2109375,-9.8203125,6462.727,0.0,0.0,0.0,6463.518,-10.1875,35.625,22.25
647,6473.530000000001,1.90625,-0.23046875,-9.75,6472.525,0.0,0.0,0.0,6473.437,-9.8125,36.375,23.0
648,6483.385,1.9140625,-0.2109375,-9.81640625,6482.7880000000005,0.0,0.0,0.0,6483.393999999999,-9.8125,37.4375,23.0
649,6493.141,1.89453125,-0.23046875,-9.79296875,6492.7429999999995,0.0,0.0,0.0,6493.147,-10.1875,37.125,21.8125
650,6502.975,1.90625,-0.23046875,-9.8203125,6502.629,0.0,0.0,0.0,6503.084000000001,-9.8125,36.75,21.8125
651,6513.165,1.89453125,-0.25,-9.7734375,6513.115,0.0,0.0,0.0,6513.168000000001,-9.8125,36.375,22.625
652,6522.952,1.93359375,-0.25,-9.85546875,6522.924,0.0,0.0,0.0,6523.058,-10.875,36.75,23.4375
653,6534.78,1.9453125,-0.23828125,-9.8515625,6532.92,0.0,0.0,0.0,6534.786999999999,-9.4375,36.0,22.625
654,6544.493,1.9453125,-0.23828125,-9.765625,6542.995,0.0,0.0,0.0,6544.6,-9.8125,36.0,22.625
655,6554.5,1.90625,-0.2109375,-9.8359375,6553.002,0.0,0.0,0.0,6554.606,-9.8125,36.75,22.625
656,6564.293000000001,1.90625,-0.2109375,-9.8359375,6563.199,0.0,0.0,0.0,6564.4039999999995,-9.8125,36.0,21.4375
657,6574.1849999999995,1.90625,-0.27734375,-9.7890625,6573.087,0.0,0.0,0.0,6574.295,-9.4375,36.375,22.1875
658,6584.036,1.89453125,-0.23046875,-9.80078125,6582.938,0.0,0.0,0.0,6584.146,-10.1875,35.625,23.0
659,6593.893999999999,1.90625,-0.23828125,-9.81640625,6592.796,0.0,0.0,0.0,6594.003,-9.0625,36.375,22.625
660,6603.7970000000005,1.89453125,-0.23828125,-9.73828125,6602.7,0.0,0.0,0.0,6603.907,-9.0625,37.4375,22.25
661,6613.799,1.9140625,-0.23828125,-9.8125,6612.599999999999,0.0,0.0,0.0,6613.608,-9.8125,36.375,21.4375
662,6623.719999999999,1.89453125,-0.2109375,-9.80859375,6623.694,0.0,0.0,0.0,6623.628,-9.4375,36.375,21.4375
663,6633.544,1.89453125,-0.18359375,-9.80078125,6632.926,0.0,0.0,0.0,6633.653,-10.1875,37.8125,22.625
664,6643.446,1.88671875,-0.23046875,-9.82421875,6642.747,0.0,0.0,0.0,6643.456999999999,-10.1875,36.75,21.8125
665,6653.1849999999995,1.92578125,-0.21875,-9.85546875,6652.772,0.0,0.0,0.0,6653.195000000001,-9.0625,35.625,22.625
666,6663.257,1.89453125,-0.23046875,-9.8515625,6662.677000000001,0.0,0.0,0.0,6663.063,-9.4375,35.625,22.625
667,6673.002,1.9140625,-0.21875,-9.765625,6673.022,0.0,0.0,0.0,6673.005,-9.4375,37.125,22.1875
668,6682.894,1.9453125,-0.25,-9.76953125,6682.766,0.0,0.0,0.0,6682.901,-10.1875,36.0,22.625
669,6694.652,1.92578125,-0.23046875,-9.76171875,6692.992,0.0,0.0,0.0,6694.659,-10.1875,36.0,22.1875
670,6704.653,1.90625,-0.21875,-9.8203125,6702.955,0.0,0.0,0.0,6704.558999999999,-10.1875,36.375,22.625
671,6714.634,1.92578125,-0.26953125,-9.82421875,6712.9349999999995,0.0,0.0,0.0,6714.744,-9.4375,36.375,22.1875
672,6724.384,1.89453125,-0.23046875,-9.8359375,6722.987,0.0,0.0,0.0,6724.389999999999,-9.4375,35.625,22.1875
673,6734.275000000001,1.92578125,-0.23046875,-9.7890625,6732.878000000001,0.0,0.0,0.0,6734.282,-10.5,36.75,22.625
674,6744.201999999999,1.9140625,-0.23828125,-9.765625,6742.705,0.0,0.0,0.0,6744.308,-9.8125,35.625,22.625
675,6754.029,1.93359375,-0.25,-9.7890625,6752.833,0.0,0.0,0.0,6754.035,-9.8125,36.75,22.1875
676,6763.869,1.8671875,-0.23828125,-9.80859375,6762.572999999999,0.0,0.0,0.0,6763.975,-9.0625,36.75,23.0
677,6773.813999999999,1.92578125,-0.2109375,-9.71875,6772.717000000001,0.0,0.0,0.0,6773.92,-9.0625,36.375,23.0
678,6783.684,1.90625,-0.2109375,-9.765625,6782.587,0.0,0.0,0.0,6783.79,-10.5,36.375,22.1875
679,6793.521,1.9453125,-0.23046875,-9.77734375,6792.799,0.0,0.0,0.0,6793.527,-9.4375,36.75,23.4375
680,6803.5019999999995,1.93359375,-0.2578125,-9.82421875,6802.796,0.0,0.0,0.0,6803.308999999999,-10.1875,36.375,22.625
681,6813.3949999999995,1.96484375,-0.25,-9.76953125,6812.782,0.0,0.0,0.0,6813.205,-9.4375,35.25,22.625
682,6823.197999999999,1.953125,-0.23046875,-9.88671875,6822.794,0.0,0.0,0.0,6823.205,-10.1875,36.375,23.0
683,6833.0419999999995,1.90625,-0.25,-9.8046875,6833.006,0.0,0.0,0.0,6833.049,-9.8125,35.625,23.4375
684,6843.012,1.89453125,-0.23046875,-9.79296875,6842.986,0.0,0.0,0.0,6843.122,-9.4375,36.75,23.4375
685,6854.6630000000005,1.9140625,-0.26953125,-9.76171875,6853.008,0.0,0.0,0.0,6854.673,-10.1875,36.75,22.25
686,6864.538,1.87890625,-0.21875,-9.8203125,6863.042,0.0,0.0,0.0,6864.644,-9.8125,37.125,22.1875
687,6874.724999999999,1.93359375,-0.25,-9.7734375,6873.070000000001,0.0,0.0,0.0,6874.639,-10.875,35.25,22.1875
688,6884.5070000000005,1.9140625,-0.23046875,-9.8125,6883.009999999999,0.0,0.0,0.0,6884.414,-9.4375,37.4375,23.0
689,6894.402,1.90625,-0.19140625,-9.7890625,6893.1050000000005,0.0,0.0,0.0,6894.308,-9.8125,36.375,22.625
690,6904.284,1.93359375,-0.2109375,-9.7890625,6902.787,0.0,0.0,0.0,6904.19,-9.8125,36.0,22.625
691,6914.177,1.89453125,-0.19140625,-9.79296875,6912.679,0.0,0.0,0.0,6914.084,-10.1875,37.125,22.625
692,6923.931,1.92578125,-0.25,-9.82421875,6922.737,0.0,0.0,0.0,6923.941,-9.8125,36.375,22.25
693,6933.741,1.89453125,-0.26953125,-9.7890625,6932.544,0.0,0.0,0.0,6933.748,-9.8125,36.75,22.625
694,6943.705,1.9453125,-0.23828125,-9.8125,6942.614,0.0,0.0,0.0,6943.815,-9.4375,37.125,22.625
695,6953.591,1.88671875,-0.23828125,-9.8125,6952.8679999999995,0.0,0.0,0.0,6953.598,-9.4375,35.625,23.0
696,6963.533,1.92578125,-0.27734375,-9.7890625,6962.92,0.0,0.0,0.0,6963.543,-10.1875,36.75,22.25
697,6973.408,1.92578125,-0.25,-9.8125,6972.797,0.0,0.0,0.0,6973.215,-9.4375,37.4375,22.25
698,6983.328,1.9140625,-0.23046875,-9.77734375,6982.953,0.0,0.0,0.0,6983.331999999999,-9.4375,37.8125,22.625
699,6993.134,1.8671875,-0.2578125,-9.76171875,6993.088,0.0,0.0,0.0,6993.138,-9.8125,36.75,22.625
700,7003.1179999999995,1.90625,-0.2109375,-9.77734375,7003.017,0.0,0.0,0.0,7003.049,-10.5,35.625,23.875
701,7014.95,1.87890625,-0.23046875,-9.76171875,7013.053,0.0,0.0,0.0,7014.7570000000005,-9.4375,36.375,21.8125
702,7024.748,1.88671875,-0.2578125,-9.79296875,7023.014,0.0,0.0,0.0,7024.6539999999995,-9.8125,35.25,21.0
703,7034.626,1.92578125,-0.19921875,-9.8125,7032.917,0.0,0.0,0.0,7034.736,-9.8125,36.75,22.625
704,7044.482,1.92578125,-0.26953125,-9.8046875,7043.2480000000005,0.0,0.0,0.0,7044.491,-10.1875,36.375,22.625
705,7054.4310000000005,1.93359375,-0.21875,-9.82421875,7052.896,0.0,0.0,0.0,7054.337,-9.4375,36.0,23.4375
706,7064.253,1.953125,-0.23828125,-9.80078125,7063.018,0.0,0.0,0.0,7064.26,-9.8125,36.0,22.625
707,7074.133,1.89453125,-0.25,-9.76171875,7072.696,0.0,0.0,0.0,7074.144,-10.1875,36.0,22.625
708,7083.977,1.953125,-0.23046875,-9.84765625,7082.842000000001,0.0,0.0,0.0,7084.083,-9.4375,36.375,21.4375
709,7093.827,1.88671875,-0.25,-9.7734375,7092.791,0.0,0.0,0.0,7093.833,-9.4375,36.375,21.0
710,7103.764,1.89453125,-0.23828125,-9.765625,7102.63,0.0,0.0,0.0,7103.871,-9.4375,35.625,23.0
711,7113.632,1.9140625,-0.2578125,-9.8046875,7112.875,0.0,0.0,0.0,7113.638,-9.0625,36.0,23.0
712,7123.517,1.88671875,-0.25,-9.7734375,7122.937,0.0,0.0,0.0,7123.539,-9.0625,36.75,21.8125
713,7135.322,1.9140625,-0.23828125,-9.80078125,7133.377,0.0,0.0,0.0,7135.328,-9.8125,36.0,22.1875
714,7143.380999999999,1.93359375,-0.21875,-9.7578125,7142.78,0.0,0.0,0.0,7143.293,-9.4375,36.75,21.8125
715,7153.148,1.90625,-0.23828125,-9.8203125,7152.931,0.0,0.0,0.0,7153.1539999999995,-9.4375,36.75,22.625
716,7163.026000000001,1.9140625,-0.2109375,-9.796875,7162.899,0.0,0.0,0.0,7163.036,-9.8125,36.0,22.25
717,7174.742,1.93359375,-0.23828125,-9.82421875,7173.101,0.0,0.0,0.0,7174.750999999999,-9.0625,35.25,22.625
718,7184.756,1.93359375,-0.23046875,-9.79296875,7183.0740000000005,0.0,0.0,0.0,7184.866,-9.8125,36.375,23.4375
719,7194.478,1.87890625,-0.2109375,-9.82421875,7192.996,0.0,0.0,0.0,7194.587,-9.8125,36.75,23.4375
720,7204.446,1.9140625,-0.2578125,-9.82421875,7203.0019999999995,0.0,0.0,0.0,7204.552,-10.1875,36.0,22.25
721,7214.481,1.88671875,-0.21875,-9.80078125,7212.999,0.0,0.0,0.0,7214.388,-9.0625,35.625,21.4375
722,7224.276,1.9140625,-0.21875,-9.75390625,7222.897,0.0,0.0,0.0,7224.286,-9.8125,36.0,22.25
723,7233.005999999999,1.92578125,-0.23046875,-9.76171875,7232.872,0.0,0.0,0.0,7233.008,-9.4375,36.75,23.0
724,7243.997,1.92578125,-0.26953125,-9.80078125,7242.614,0.0,0.0,0.0,7244.004,-8.3125,36.0,22.1875
725,7253.832,1.9140625,-0.26953125,-9.796875,7252.649,0.0,0.0,0.0,7253.838,-10.5,36.375,23.0625
726,7263.8,1.9140625,-0.23828125,-9.80078125,7262.718,0.0,0.0,0.0,7263.906999999999,-9.0625,35.625,22.25
727,7273.678,1.9140625,-0.23828125,-9.80078125,7272.972000000001,0.0,0.0,0.0,7273.687,-9.4375,37.4375,22.25
728,7283.572999999999,1.93359375,-0.19140625,-9.79296875,7282.866,0.0,0.0,0.0,7283.579,-8.6875,36.75,22.625
729,7293.482,1.89453125,-0.25,-9.7890625,7292.882,0.0,0.0,0.0,7293.291,-9.4375,36.75,22.25
730,7303.442999999999,1.90625,-0.2109375,-9.8046875,7302.9400000000005,0.0,0.0,0.0,7303.449,-9.4375,36.75,22.25
731,7313.349999999999,1.9140625,-0.25,-9.81640625,7312.785,0.0,0.0,0.0,7313.353,-10.1875,36.0,21.4375
732,7323.174,1.89453125,-0.23828125,-9.73046875,7323.082,0.0,0.0,0.0,7323.28,-9.8125,36.0,22.625
733,7334.942,1.9140625,-0.23046875,-9.79296875,7333.281999999999,0.0,0.0,0.0,7334.7480000000005,-10.5,36.375,23.4375
734,7344.678,1.88671875,-0.23046875,-9.765625,7343.1810000000005,0.0,0.0,0.0,7344.785,-10.1875,36.0,22.625
735,7354.704,1.89453125,-0.23046875,-9.84765625,7353.005999999999,0.0,0.0,0.0,7354.8099999999995,-10.1875,36.375,21.4375
736,7364.486999999999,1.90625,-0.23828125,-9.81640625,7363.392,0.0,0.0,0.0,7364.594,-9.0625,36.75,23.0
737,7374.459,1.90625,-0.21875,-9.80859375,7373.263,0.0,0.0,0.0,7374.465,-10.5,36.0,22.25
738,7386.353,1.88671875,-0.2109375,-9.7734375,7384.258,0.0,0.0,0.0,7386.362,-9.0625,36.0,21.8125
739,7394.304,1.90625,-0.23828125,-9.7734375,7393.004999999999,0.0,0.0,0.0,7394.21,-9.4375,36.375,23.0
740,7404.003000000001,1.92578125,-0.25,-9.79296875,7403.11,0.0,0.0,0.0,7404.112999999999,-9.4375,35.625,22.25
741,7413.948,1.93359375,-0.21875,-9.8125,7412.853,0.0,0.0,0.0,7414.057,-9.8125,35.625,21.8125
742,7423.817,1.88671875,-0.23046875,-9.8046875,7422.923,0.0,0.0,0.0,7423.728999999999,-10.875,36.375,23.4375
743,7433.793,1.9453125,-0.23828125,-9.79296875,7432.7699999999995,0.0,0.0,0.0,7433.699,-9.8125,37.125,21.8125
744,7443.65,1.9453125,-0.23828125,-9.765625,7442.9439999999995,0.0,0.0,0.0,7443.656,-9.4375,36.75,22.25
745,7453.56,1.93359375,-0.23046875,-9.88671875,7452.860000000001,0.0,0.0,0.0,7453.37,-9.4375,37.4375,23.0
746,7463.433,1.93359375,-0.19921875,-9.7890625,7462.92,0.0,0.0,0.0,7463.505999999999,-9.8125,36.375,21.4375
747,7473.246999999999,1.89453125,-0.25,-9.7890625,7472.844,0.0,0.0,0.0,7473.253,-9.8125,36.0,21.8125
748,7483.219,1.8671875,-0.23828125,-9.85546875,7483.13,0.0,0.0,0.0,7483.129,-9.4375,36.0,23.875
749,7495.067,2.10546875,-0.2578125,-9.734375,7493.2119999999995,0.0,0.0,0.0,7495.077,-10.5,36.0,21.8125
750,7504.786,1.80859375,-0.2578125,-9.83984375,7503.1410000000005,0.0,0.0,0.0,7504.896,-9.0625,36.375,22.625
751,7514.8640000000005,1.9921875,-0.25,-9.83984375,7513.216,-0.001953125,0.005859375,0.001953125,7514.774,-9.8125,36.75,22.1875
752,7524.686,1.92578125,-0.2109375,-9.79296875,7523.237,-0.001953125,0.00390625,0.001953125,7524.7919999999995,-8.6875,36.375,22.25
753,7534.529,1.88671875,-0.25,-9.76953125,7533.082,-0.001953125,0.0,0.001953125,7534.6359999999995,-9.4375,36.0,22.625
754,7544.418000000001,1.88671875,-0.23828125,-9.71875,7542.969,0.0,-0.005859375,0.0,7544.524,-10.5,35.25,22.625
755,7554.2429999999995,1.92578125,-0.25,-9.77734375,7552.796,0.0,-0.005859375,-0.001953125,7554.35,-9.4375,36.375,22.625
756,7564.039,1.88671875,-0.26953125,-9.86328125,7562.891,0.0,-0.001953125,0.0,7564.045,-9.4375,35.625,21.8125
757,7573.949,1.953125,-0.23046875,-9.79296875,7572.701999999999,0.0,-0.001953125,0.0,7574.056,-9.0625,36.75,22.625
758,7583.849,1.87890625,-0.23046875,-9.75,7582.804,0.0,-0.001953125,0.0,7583.955,-8.6875,35.625,21.8125
759,7593.704,1.9453125,-0.25,-9.76953125,7592.788,0.0,-0.001953125,0.0,7593.711,-8.6875,36.375,21.4375
760,7603.658,1.9140625,-0.19921875,-9.7890625,7603.138000000001,0.0,0.0,0.0,7603.664,-10.875,36.0,21.8125
761,7613.544,1.88671875,-0.23828125,-9.79296875,7613.023,0.0,0.00390625,0.0,7613.551,-8.6875,36.75,23.4375
762,7623.501,1.93359375,-0.21875,-9.8125,7622.886,0.0,0.00390625,0.0,7623.308,-10.1875,36.75,22.625
763,7635.349999999999,1.87890625,-0.23828125,-9.80859375,7633.295999999999,-0.001953125,0.001953125,0.0,7635.16,-10.1875,35.625,22.625
764,7643.1050000000005,1.88671875,-0.27734375,-9.8359375,7643.092000000001,0.0,0.0,0.0,7643.112,-9.4375,37.125,22.625
765,7653.143,1.90625,-0.23828125,-9.85546875,7653.32,0.0,0.0,0.0,7653.253000000001,-9.8125,35.625,22.625
766,7664.962,1.953125,-0.2109375,-9.76953125,7663.309,-0.001953125,0.0,-0.001953125,7664.772,-9.8125,36.375,21.8125
767,7674.862,1.8671875,-0.23828125,-9.7734375,7673.235,0.0,0.0,0.0,7674.771,-10.1875,36.0,23.0
768,7684.651,1.92578125,-0.21875,-9.80859375,7683.287,0.0,0.0,0.0,7684.758000000001,-9.4375,36.0,22.625
769,7694.599,1.89453125,-0.23046875,-9.84765625,7693.148,0.001953125,0.001953125,-0.001953125,7694.709,-10.1875,35.625,23.0625
770,7704.411,1.90625,-0.23046875,-9.734375,7703.161,0.0,0.0,-0.001953125,7704.521,-10.1875,36.0,23.0
771,7714.359,1.92578125,-0.23046875,-9.734375,7712.881,0.0,0.0,0.0,7714.144,-9.8125,36.0,22.25
772,7724.181,1.90625,-0.23046875,-9.83984375,7722.731,0.0,0.0,0.001953125,7724.287,-9.8125,37.4375,22.625
773,7733.962,1.9453125,-0.23828125,-9.79296875,7732.713000000001,0.001953125,0.001953125,0.0,7734.0689999999995,-9.4375,36.0,23.0625
774,7743.911,1.90625,-0.2109375,-9.77734375,7742.861000000001,0.001953125,0.001953125,0.001953125,7744.017000000001,-9.8125,35.25,23.4375
775,7753.824,1.9140625,-0.25,-9.7890625,7752.803,0.0,0.0,0.0,7753.932,-9.4375,34.9375,22.625
776,7763.705,1.96484375,-0.2109375,-9.80859375,7763.188999999999,-0.001953125,0.0,0.0,7763.711,-10.5,35.25,22.625
777,7773.6,1.88671875,-0.26953125,-9.796875,7773.081,-0.001953125,-0.001953125,0.0,7773.606,-9.8125,36.0,22.25
778,7783.522,1.9140625,-0.25,-9.8203125,7782.911,0.0,0.0,-0.001953125,7783.331,-9.8125,35.25,21.4375
779,7793.437,1.90625,-0.23046875,-9.76953125,7793.01,0.0,0.0,-0.001953125,7793.443,-10.1875,36.0,21.4375
780,7803.366999999999,1.92578125,-0.19921875,-9.8125,7803.378000000001,0.0,-0.001953125,-0.001953125,7803.284,-10.5,36.0,22.25
781,7813.093,1.92578125,-0.2578125,-9.86328125,7813.043000000001,0.0,-0.001953125,-0.001953125,7813.096,-9.8125,35.25,22.25
782,7823.253000000001,1.87890625,-0.25,-9.80078125,7823.226,0.0,0.0,-0.001953125,7823.362,-9.4375,36.0,22.625
783,7834.805,1.87890625,-0.23828125,-9.80859375,7833.254,0.0,0.0,0.0,7834.715,-9.8125,35.625,22.25
784,7844.704,1.93359375,-0.23046875,-9.77734375,7843.3279999999995,0.0,0.0,0.0,7844.8099999999995,-9.0625,37.125,23.0
785,7854.546,1.90625,-0.25,-9.82421875,7853.170999999999,0.0,0.0,0.0,7854.653,-9.8125,37.4375,23.4375
786,7864.418,1.9453125,-0.23828125,-9.75390625,7863.241,0.0,0.0,0.0,7864.524,-10.1875,36.75,22.25
787,7874.303,1.89453125,-0.2578125,-9.8125,7872.93,-0.001953125,0.001953125,0.0,7874.413,-9.8125,36.0,22.625
788,7884.331,1.9140625,-0.21875,-9.8046875,7882.757,0.0,0.001953125,0.001953125,7884.24,-10.5,36.0,23.4375
789,7894.247,1.9453125,-0.19140625,-9.84765625,7892.774,0.001953125,0.001953125,0.0,7894.058,-10.1875,36.75,23.0625
790,7904.015,1.90625,-0.23828125,-9.8203125,7903.039,0.001953125,0.001953125,0.0,7904.122,-8.6875,36.375,22.625
791,7913.908,1.92578125,-0.2578125,-9.76953125,7912.831999999999,0.0,0.001953125,0.001953125,7914.017000000001,-10.5,36.0,23.4375
792,7923.72,1.88671875,-0.21875,-9.82421875,7922.844999999999,0.0,0.0,0.0,7923.83,-9.8125,36.375,21.8125
793,7933.558,1.90625,-0.25,-9.8046875,7933.0,0.0,0.0,-0.001953125,7933.567,-9.0625,37.125,22.625
794,7943.494000000001,1.9140625,-0.23046875,-9.84765625,7942.938,0.0,0.001953125,0.0,7943.504,-9.8125,36.375,23.4375
795,7953.287,1.88671875,-0.23046875,-9.765625,7952.933,0.0,0.001953125,0.001953125,7953.400000000001,-9.8125,36.0,21.8125
796,7963.36,1.92578125,-0.2578125,-9.81640625,7963.311,0.0,0.0,0.001953125,7963.3640000000005,-9.0625,35.625,23.4375
797,7973.150000000001,1.93359375,-0.25,-9.7734375,7973.101,0.0,-0.001953125,0.0,7973.156999999999,-10.875,36.0,21.8125
798,7984.950000000001,1.90625,-0.25,-9.82421875,7983.31,-0.001953125,-0.001953125,0.0,7984.96,-9.0625,35.25,22.25
799,7994.753000000001,1.89453125,-0.2109375,-9.83984375,7993.232,-0.001953125,-0.001953125,0.0,7994.862999999999,-9.8125,35.25,23.875
800,8004.672,1.88671875,-0.23046875,-9.8359375,8003.349,-0.001953125,-0.001953125,0.0,8004.7789999999995,-9.4375,37.125,21.8125
801,8014.731,1.9453125,-0.23046875,-9.8046875,8013.206,-0.001953125,0.0,0.0,8014.637000000001,-9.0625,35.25,22.625
802,8024.456000000001,1.88671875,-0.23828125,-9.8125,8023.130999999999,-0.001953125,0.0,0.0,8024.563,-9.0625,37.125,23.0
803,8034.481,1.953125,-0.2578125,-9.82421875,8032.961,0.0,0.0,0.0,8034.387000000001,-9.4375,35.25,22.625
804,8044.287,1.89453125,-0.23828125,-9.8046875,8042.844999999999,-0.001953125,-0.001953125,0.001953125,8044.193,-9.4375,36.0,22.25
805,8054.155,1.9140625,-0.21875,-9.84765625,8052.832,0.0,0.0,0.001953125,8054.262,-9.0625,37.125,21.8125
806,8064.101000000001,1.9140625,-0.23828125,-9.765625,8062.977,0.0,0.001953125,0.001953125,8064.0070000000005,-10.1875,36.375,21.8125
807,8073.975,1.9453125,-0.23828125,-9.765625,8072.8550000000005,0.001953125,0.001953125,0.001953125,8074.085,-9.8125,34.9375,23.0
808,8083.750999999999,1.90625,-0.25,-9.7578125,8082.910999999999,0.0,0.0,0.001953125,8083.857,-9.8125,37.125,22.25
809,8093.612999999999,1.87890625,-0.2890625,-9.80078125,8093.11,0.0,0.0,0.0,8093.622999999999,-9.4375,35.25,22.25
810,8103.503999999999,1.93359375,-0.23828125,-9.79296875,8102.999000000001,0.0,0.0,-0.001953125,8103.513,-9.8125,37.125,22.25
811,8113.592000000001,1.89453125,-0.23046875,-9.875,8112.944,0.0,0.0,-0.001953125,8113.398,-9.0625,36.75,22.625
812,8123.218,1.89453125,-0.26953125,-9.734375,8123.055000000001,0.0,0.0,-0.001953125,8123.224999999999,-9.0625,36.375,23.0625
813,8133.278,1.89453125,-0.25,-9.81640625,8133.179999999999,0.0,0.0,-0.001953125,8133.21,-10.1875,37.125,23.0625
814,8145.041000000001,1.88671875,-0.21875,-9.82421875,8143.283,0.0,0.001953125,-0.001953125,8145.148000000001,-9.8125,35.625,21.8125
815,8154.9259999999995,1.89453125,-0.23828125,-9.79296875,8153.280000000001,-0.001953125,0.001953125,0.0,8154.935,-9.0625,35.25,23.8125
816,8164.804999999999,1.92578125,-0.23828125,-9.84375,8163.3589999999995,-0.001953125,0.0,0.0,8164.915000000001,-9.8125,37.125,23.4375
817,8174.751,1.92578125,-0.23046875,-9.7890625,8173.5019999999995,-0.001953125,0.0,0.0,8174.657,-9.0625,36.0,22.625
818,8184.628,1.90625,-0.21875,-9.80859375,8183.579999999999,0.0,0.0,-0.001953125,8184.535000000001,-9.4375,36.75,21.8125
819,8194.318000000001,1.89453125,-0.25,-9.80859375,8193.269,0.0,0.0,-0.001953125,8194.423999999999,-10.1875,36.0,22.25
820,8204.21,1.953125,-0.23828125,-9.765625,8203.163,0.0,0.0,0.0,8204.319,-9.8125,34.9375,21.8125
821,8214.071,1.89453125,-0.2578125,-9.7578125,8213.023,0.0,0.0,0.0,8214.18,-10.5,35.625,22.25
822,8223.992,1.90625,-0.23046875,-9.796875,8222.944,0.0,0.001953125,0.001953125,8224.102,-9.4375,36.0,21.4375
823,8234.047999999999,1.9140625,-0.21875,-9.79296875,8232.810000000001,0.0,0.0,0.001953125,8233.957,-9.8125,35.625,23.0625
824,8243.833,1.9140625,-0.19140625,-9.79296875,8243.017,0.0,0.0,0.001953125,8243.943,-9.0625,35.25,22.625
825,8253.724999999999,1.92578125,-0.23828125,-9.84375,8253.009,0.0,-0.001953125,0.001953125,8253.734,-9.8125,36.0,22.1875
826,8263.657000000001,1.88671875,-0.26953125,-9.80859375,8263.154999999999,0.0,0.0,0.0,8263.662,-9.8125,36.375,21.8125
827,8273.465,1.9140625,-0.25,-9.83984375,8272.93,0.0,0.0,-0.001953125,8273.358,-9.0625,36.0,23.0
828,8283.281,1.9453125,-0.25,-9.76953125,8283.229000000001,0.0,0.0,-0.001953125,8283.284,-9.8125,36.0,22.25
829,8293.322999999999,1.93359375,-0.21875,-9.8046875,8293.217999999999,0.0,0.0,-0.001953125,8293.234,-10.1875,35.625,22.625
830,8305.073999999999,1.93359375,-0.26953125,-9.72265625,8303.217999999999,0.0,0.0,0.0,8305.083,-9.8125,36.75,21.0
831,8314.979,1.93359375,-0.2109375,-9.734375,8313.353,0.001953125,0.0,0.001953125,8314.989000000001,-9.8125,36.375,21.8125
832,8324.858,1.87890625,-0.26953125,-9.82421875,8323.410000000002,0.0,0.001953125,0.001953125,8324.966999999999,-9.4375,36.0,22.25
833,8334.554,1.9140625,-0.23828125,-9.80078125,8333.106000000002,0.0,0.001953125,0.0,8334.661,-9.0625,36.375,22.25
834,8344.623,1.9140625,-0.26953125,-9.796875,8343.375,-0.001953125,0.001953125,0.0,8344.729,-9.8125,35.625,22.625
835,8354.506000000001,1.92578125,-0.23046875,-9.81640625,8353.258,-0.001953125,0.0,-0.001953125,8354.613000000001,-10.1875,36.0,22.625
836,8364.338,1.8671875,-0.21875,-9.76953125,8362.889,0.0,0.0,-0.001953125,8364.444000000001,-9.0625,36.0,22.625
837,8374.108,1.9140625,-0.2578125,-9.79296875,8372.859,0.0,0.0,-0.001953125,8374.216,-9.4375,36.0,22.625
838,8384.059000000001,1.92578125,-0.19921875,-9.79296875,8383.008,-0.001953125,0.0,-0.001953125,8384.164999999999,-9.8125,37.8125,23.0625
839,8393.922,1.9140625,-0.2578125,-9.79296875,8393.077,0.0,-0.001953125,0.0,8394.033,-8.6875,36.75,22.625
840,8404.030999999999,1.93359375,-0.21875,-9.80078125,8403.015,0.0,-0.001953125,0.001953125,8403.954,-9.4375,36.0,23.0625
841,8413.82,1.90625,-0.21875,-9.734375,8413.002,0.0,-0.00390625,0.001953125,8413.731,-9.8125,35.625,22.625
842,8423.684,1.93359375,-0.25,-9.7890625,8422.981,0.0,-0.00390625,0.001953125,8423.49,-10.5,36.375,23.0625
843,8433.465,1.8671875,-0.21875,-9.81640625,8432.902,0.0,-0.001953125,0.001953125,8433.475,-10.1875,36.0,22.625
844,8443.303,1.92578125,-0.2109375,-9.8515625,8443.126,0.0,-0.001953125,0.001953125,8443.311,-9.8125,36.375,22.25
845,8453.217,1.90625,-0.25,-9.82421875,8453.294,0.0,0.0,0.0,8453.224,-9.4375,36.75,21.4375
846,8465.113000000001,1.92578125,-0.21875,-9.8203125,8463.46,0.0,0.0,-0.001953125,8464.92,-9.8125,37.125,22.625
847,8475.026,1.9453125,-0.23046875,-9.8046875,8473.376,0.0,0.0,-0.001953125,8474.932,-9.4375,36.0,22.625
848,8484.696,1.90625,-0.23828125,-9.76171875,8483.247000000001,0.0,0.0,0.0,8484.803,-10.1875,36.0,22.625
849,8494.844000000001,1.92578125,-0.27734375,-9.85546875,8493.396,-0.001953125,0.0,0.0,8494.75,-9.0625,36.375,22.25
850,8504.671,1.93359375,-0.23828125,-9.84765625,8503.425,-0.001953125,0.0,0.001953125,8504.678,-9.8125,35.625,21.4375
851,8514.491,1.92578125,-0.23046875,-9.85546875,8513.248000000001,-0.001953125,0.0,0.001953125,8514.500999999998,-9.8125,36.375,21.0
852,8524.387,1.92578125,-0.23828125,-9.7734375,8523.139000000001,-0.001953125,0.0,0.001953125,8524.395999999999,-9.8125,36.375,23.0625
853,8534.262,1.89453125,-0.2578125,-9.8046875,8532.916000000001,0.0,0.0,0.001953125,8534.172999999999,-9.4375,36.0,24.25
854,8544.215,1.87890625,-0.23046875,-9.85546875,8543.068,0.0,0.0,0.001953125,8544.124,-9.8125,36.0,22.625
855,8554.081999999999,1.9140625,-0.21875,-9.8046875,8552.936000000002,0.0,0.0,0.001953125,8554.193,-9.4375,35.25,22.625
856,8563.976999999999,1.9140625,-0.23828125,-9.8125,8562.871,0.0,0.0,0.001953125,8563.783000000001,-9.8125,36.0,22.625
857,8573.903,1.89453125,-0.25,-9.83984375,8573.088,0.0,0.0,0.0,8573.912,-8.6875,35.625,22.625
858,8583.801,1.90625,-0.25,-9.7578125,8583.283,0.0,0.0,0.0,8583.81,-9.4375,36.375,21.8125
859,8593.716,1.93359375,-0.21875,-9.8046875,8592.999000000002,0.0,0.0,0.0,8593.642,-9.4375,35.625,23.0625
860,8603.265000000001,1.9140625,-0.23046875,-9.77734375,8603.085000000001,0.0,0.0,0.0,8603.268,-9.4375,36.0,21.8125
861,8615.323999999999,1.88671875,-0.25,-9.85546875,8613.249,0.0,0.0,0.0,8615.333,-10.1875,36.0,23.4375
862,8625.173,1.93359375,-0.23828125,-9.73828125,8623.479,0.0,0.0,0.0,8625.082,-10.5,35.625,22.625
863,8634.957,1.92578125,-0.26953125,-9.82421875,8633.526,0.0,0.0,0.0,8635.067,-10.1875,37.125,23.4375
864,8645.045,1.9140625,-0.23046875,-9.8515625,8643.413,0.0,0.0,0.0,8644.954,-8.6875,36.0,24.25
865,8656.736,1.88671875,-0.23828125,-9.84765625,8654.762,0.0,0.0,0.0,8656.846,-10.1875,36.75,22.25
866,8664.733999999999,1.92578125,-0.23828125,-9.80859375,8663.365,0.0,0.0,0.0,8664.844000000001,-9.8125,35.625,22.625
867,8674.62,1.92578125,-0.2109375,-9.8046875,8673.151,0.0,0.0,0.0,8674.427,-10.1875,36.0,22.625
868,8684.505,1.90625,-0.2578125,-9.8203125,8683.236,0.0,0.0,0.0,8684.515,-9.4375,36.375,22.25
869,8694.346,1.9140625,-0.23046875,-9.79296875,8693.077000000001,0.0,0.0,0.0,8694.352,-9.4375,36.375,22.25
870,8704.273000000001,1.92578125,-0.23828125,-9.8203125,8702.904,0.0,0.0,0.0,8704.183,-9.4375,36.0,22.625
871,8714.138,1.88671875,-0.26953125,-9.8828125,8712.965,0.0,0.0,0.0,8714.051,-9.0625,36.0,22.625
872,8724.003,1.92578125,-0.23828125,-9.80859375,8723.043,0.0,0.0,0.0,8724.01,-9.4375,34.5625,22.25
873,8733.749,1.87890625,-0.27734375,-9.7890625,8733.297999999999,0.0,0.0,0.0,8733.759,-9.4375,37.125,22.625
874,8743.625,1.89453125,-0.21875,-9.89453125,8743.171,0.0,0.0,0.0,8743.632,-9.4375,36.0,23.0625
875,8753.56,1.89453125,-0.25,-9.80859375,8752.961000000001,0.0,0.0,0.0,8753.672999999999,-9.4375,35.25,21.4375
876,8763.482,1.9140625,-0.27734375,-9.82421875,8763.066,0.0,0.0,0.0,8763.486,-9.4375,35.25,21.4375
877,8773.366,1.92578125,-0.21875,-9.8203125,8773.239,0.0,0.0,0.0,8773.373,-9.8125,36.375,22.625
878,8785.121000000001,1.953125,-0.23046875,-9.8046875,8783.276000000002,0.0,0.0,0.0,8785.128,-10.1875,36.0,23.4375
879,8795.115,1.9453125,-0.2578125,-9.8046875,8793.402,0.0,0.0,0.0,8795.221,-9.8125,35.25,21.0
880,8804.852,1.9140625,-0.23046875,-9.79296875,8803.338,0.0,0.0,0.0,8804.959,-10.1875,35.625,22.25
881,8814.977,1.89453125,-0.23046875,-9.79296875,8813.333,0.0,0.0,0.0,8814.884,-9.8125,37.125,23.0625
882,8824.681,1.9140625,-0.27734375,-9.8359375,8823.168000000001,0.0,0.0,0.0,8824.79,-9.8125,37.4375,22.25
883,8833.494999999999,1.89453125,-0.2578125,-9.77734375,8833.565,0.0,0.0,0.0,8833.501,-8.6875,35.625,22.25
884,8844.535,1.97265625,-0.2578125,-9.7890625,8843.118,0.0,0.0,0.0,8844.341999999999,-9.8125,37.4375,21.8125
885,8853.233,1.89453125,-0.26953125,-9.81640625,8853.099,0.0,0.0,0.0,8853.239,-9.8125,35.625,23.4375
886,8864.314999999999,1.9453125,-0.19921875,-9.7890625,8863.103000000001,0.0,0.0,0.0,8864.324999999999,-10.5,36.0,23.0625
887,8874.064,1.93359375,-0.23046875,-9.8515625,8873.048999999999,0.0,0.0,0.0,8874.071,-10.1875,36.375,21.8125
888,8884.047,1.92578125,-0.25,-9.8046875,8882.958,0.0,0.0,0.0,8884.053,-9.4375,36.0,22.25
889,8893.933,1.90625,-0.25,-9.8046875,8893.241,0.0,0.0,0.0,8893.938,-9.4375,36.0,21.8125
890,8903.639,1.953125,-0.26953125,-9.7890625,8903.239,0.0,0.0,0.0,8903.648000000001,-9.4375,36.0,23.0625
891,8915.652,1.88671875,-0.2578125,-9.73828125,8913.694,0.0,0.0,0.0,8915.758,-10.1875,36.0,22.625
892,8923.659000000001,1.89453125,-0.2578125,-9.8125,8923.293,0.0,0.0,0.0,8923.661,-10.1875,36.0,21.8125
893,8933.425,1.9140625,-0.25,-9.796875,8933.41,0.0,0.0,0.0,8933.428,-9.0625,35.25,21.4375
894,8945.288,1.953125,-0.23828125,-9.8046875,8943.431999999999,0.0,0.0,0.0,8945.294,-9.8125,37.125,21.4375
895,8955.027,1.89453125,-0.26953125,-9.796875,8953.315,0.0,0.0,0.0,8955.137,-10.1875,37.125,22.625
896,8964.85,1.92578125,-0.23046875,-9.75,8963.517,0.0,0.0,0.0,8964.956,-9.8125,36.75,23.0625
897,8974.824999999999,1.8671875,-0.26953125,-9.77734375,8973.494,0.0,0.0,0.0,8974.932,-10.1875,36.375,23.4375
898,8984.771,1.90625,-0.23828125,-9.796875,8983.64,0.0,0.0,0.0,8984.876,-10.1875,35.625,23.0625
899,8994.58,1.90625,-0.2578125,-9.7890625,8993.550000000001,0.0,0.0,0.0,8994.587,-10.1875,36.375,22.25
900,9004.483,1.93359375,-0.19921875,-9.8203125,9003.551,0.0,0.0,0.0,9004.589,-8.6875,35.625,23.0625
901,9014.36,1.92578125,-0.21875,-9.76953125,9013.43,0.0,0.0,0.0,9014.467,-10.1875,36.75,22.625
902,9024.192,1.89453125,-0.18359375,-9.82421875,9023.161,0.0,0.0,0.0,9024.198,-9.0625,36.375,23.4375
903,9034.174,1.92578125,-0.23046875,-9.7734375,9033.248,0.0,0.0,0.0,9034.281,-9.4375,35.25,22.25
904,9044.053,1.92578125,-0.2578125,-9.81640625,9043.131000000001,0.0,0.0,0.0,9044.061,-9.8125,36.375,23.4375
905,9053.984,1.89453125,-0.21875,-9.765625,9053.28,0.0,0.0,0.0,9053.993,-9.4375,35.25,22.25
906,9063.854,1.9453125,-0.19921875,-9.7890625,9063.24,0.0,0.0,0.0,9063.663,-9.8125,36.375,23.0625
907,9073.794,1.953125,-0.25,-9.75,9073.077,0.0,0.0,0.0,9073.866,-8.3125,36.0,22.25
908,9083.507000000001,1.93359375,-0.27734375,-9.79296875,9083.126999999999,0.0,0.0,0.0,9083.513,-10.5,36.75,22.625
909,9095.522,1.90625,-0.23828125,-9.86328125,9093.42,0.0,0.0,0.0,9095.331,-10.1875,37.125,22.25
910,9105.329,1.96484375,-0.2109375,-9.83984375,9103.472,0.0,0.0,0.0,9105.138,-10.5,35.625,23.4375
911,9115.130000000001,1.93359375,-0.21875,-9.82421875,9113.473,0.0,0.0,0.0,9115.136,-9.4375,35.625,22.625
912,9125.045999999998,1.90625,-0.18359375,-9.8203125,9123.514,0.0,0.0,0.0,9124.953,-9.4375,36.375,21.4375
913,9134.923,1.92578125,-0.2578125,-9.7734375,9133.59,0.0,0.0,0.0,9135.028999999999,-9.8125,36.375,21.8125
914,9144.765,1.88671875,-0.23046875,-9.765625,9143.432999999999,0.0,0.0,0.0,9144.871000000001,-9.4375,36.75,22.625
915,9154.775000000001,1.90625,-0.23828125,-9.76953125,9153.443,0.0,0.0,0.0,9154.681,-9.8125,37.4375,23.0625
916,9166.552,1.93359375,-0.23046875,-9.765625,9164.614,0.0,0.0,0.0,9166.558,-10.1875,36.375,22.625
917,9174.537,1.89453125,-0.23046875,-9.8046875,9173.005,0.0,0.0,0.0,9174.444,-9.8125,35.25,22.25
918,9184.363,1.92578125,-0.2109375,-9.82421875,9183.030999999999,0.0,0.0,0.0,9184.469,-9.4375,36.0,22.625
919,9194.269999999999,1.9140625,-0.2578125,-9.77734375,9193.139000000001,0.0,0.0,0.0,9194.376,-9.0625,36.375,22.625
920,9204.099,1.88671875,-0.21875,-9.75390625,9202.975,0.0,0.0,0.0,9204.105,-9.8125,36.75,23.0625
921,9214.025,1.92578125,-0.25,-9.77734375,9213.414999999999,0.0,0.0,0.0,9213.832,-10.875,37.125,22.625
922,9223.911,1.93359375,-0.23046875,-9.79296875,9223.297,0.0,0.0,0.0,9223.718,-9.8125,36.75,22.625
923,9233.86,1.89453125,-0.23828125,-9.79296875,9233.248,0.0,0.0,0.0,9233.869999999999,-9.4375,36.75,21.8125
924,9243.741999999998,1.9140625,-0.2109375,-9.7734375,9243.162999999999,0.0,0.0,0.0,9243.749,-10.1875,36.0,22.25
925,9253.422999999999,1.92578125,-0.23046875,-9.81640625,9253.497,0.0,0.0,0.0,9253.432999999999,-9.8125,36.0,22.25
926,9265.376,1.92578125,-0.25,-9.82421875,9263.321,0.0,0.0,0.0,9265.385999999999,-9.8125,36.75,22.625
927,9275.161,1.87890625,-0.18359375,-9.7734375,9273.505000000001,0.0,0.0,0.0,9275.171,-10.5,36.375,22.625
928,9284.967999999999,1.9140625,-0.2109375,-9.7890625,9283.639000000001,0.0,0.0,0.0,9285.077,-9.0625,36.75,23.4375
929,9295.074,1.89453125,-0.23828125,-9.79296875,9293.342,0.0,0.0,0.0,9294.984,-9.4375,35.625,22.25
930,9304.932,1.90625,-0.23828125,-9.7890625,9303.401,0.0,0.0,0.0,9304.841,-8.6875,36.75,22.25
931,9314.758,1.89453125,-0.2578125,-9.8125,9313.526,0.0,0.0,0.0,9314.768,-9.4375,36.375,23.0625
932,9324.639,1.90625,-0.19921875,-9.765625,9323.207999999999,0.0,0.0,0.0,9324.645999999999,-10.5,36.375,22.625
933,9334.535,1.88671875,-0.25,-9.80859375,9333.104000000001,0.0,0.0,0.0,9334.541,-10.1875,35.25,21.8125
934,9344.374,1.92578125,-0.21875,-9.7890625,9343.043,0.0,0.0,0.0,9344.284,-9.4375,35.625,22.625
935,9354.288999999999,1.96484375,-0.23828125,-9.84765625,9353.157,0.0,0.0,0.0,9354.399000000001,-9.8125,35.625,23.0625
936,9364.140000000001,1.88671875,-0.21875,-9.8046875,9363.101999999999,0.0,0.0,0.0,9364.25,-8.6875,36.375,23.0625
937,9374.023,1.90625,-0.23828125,-9.7890625,9373.303,0.0,0.0,0.0,9374.032,-9.4375,36.0,23.4375
938,9383.976,1.92578125,-0.25,-9.7578125,9383.357,0.0,0.0,0.0,9383.982,-9.4375,36.75,22.25
939,9393.710000000001,1.87890625,-0.25,-9.8125,9393.188,0.0,0.0,0.0,9393.716,-9.8125,36.0,22.25
940,9403.603000000001,1.92578125,-0.23046875,-9.7734375,9403.218,0.0,0.0,0.0,9403.606,-9.0625,37.125,21.4375
941,9415.546,1.93359375,-0.2109375,-9.796875,9413.544999999998,0.0,0.0,0.0,9415.576,-9.4375,36.375,23.4375
942,9423.429,1.9140625,-0.23046875,-9.8046875,9423.303,0.0,0.0,0.0,9423.439,-8.6875,36.375,21.8125
943,9435.224,1.93359375,-0.21875,-9.77734375,9433.533000000001,0.0,0.0,0.0,9435.233999999999,-10.1875,37.4375,23.0625
944,9445.032,1.8671875,-0.23046875,-9.76953125,9443.466,0.0,0.0,0.0,9445.141,-9.4375,36.75,22.25
945,9454.936,1.90625,-0.21875,-9.7734375,9453.367,0.0,0.0,0.0,9455.043,-10.5,35.625,23.4375
946,9464.988,1.9140625,-0.21875,-9.79296875,9463.518,0.0,0.0,0.0,9464.797,-9.8125,36.75,23.0625
947,9474.812,1.87890625,-0.171875,-9.7734375,9473.346,0.0,0.0,0.0,9474.818000000001,-9.4375,34.9375,22.625
948,9484.734,1.88671875,-0.19921875,-9.76171875,9483.464,0.0,0.0,0.0,9484.743,-9.4375,36.375,22.25
949,9494.611,1.89453125,-0.2578125,-9.80078125,9493.141,0.0,0.0,0.0,9494.417,-10.1875,36.375,22.25
950,9504.463,1.92578125,-0.23046875,-9.7890625,9503.297,0.0,0.0,0.0,9504.573,-9.0625,36.375,21.8125
951,9514.31,1.9453125,-0.23046875,-9.79296875,9513.241,0.0,0.0,0.0,9514.317000000001,-9.4375,37.125,23.4375
952,9524.181,1.92578125,-0.23046875,-9.734375,9523.311,0.0,0.0,0.0,9524.187,-9.8125,36.375,23.875
953,9534.131000000001,1.92578125,-0.23046875,-9.76171875,9533.369999999999,0.0,0.0,0.0,9533.937999999998,-9.8125,35.625,22.625
954,9544.07,1.88671875,-0.23828125,-9.8046875,9543.418000000001,0.0,0.0,0.0,9544.08,-9.8125,36.0,21.4375
955,9553.988000000001,1.93359375,-0.2109375,-9.80859375,9553.337000000001,0.0,0.0,0.0,9553.794999999998,-9.8125,37.125,22.25
956,9563.701,1.89453125,-0.23046875,-9.8125,9563.145999999999,0.0,0.0,0.0,9563.824999999999,-9.0625,36.375,21.8125
957,9573.616,1.98046875,-0.25,-9.796875,9573.196,0.0,0.0,0.0,9573.619,-9.4375,36.375,22.625
958,9585.57,1.953125,-0.23828125,-9.79296875,9583.529,0.0,0.0,0.0,9585.577000000001,-9.8125,36.0,23.0625
959,9595.202000000001,1.93359375,-0.23046875,-9.765625,9593.579,0.0,0.0,0.0,9595.209,-9.4375,36.0,20.625
960,9605.207,1.96484375,-0.25,-9.7734375,9603.688999999998,0.0,0.0,0.0,9605.313,-9.8125,36.375,21.8125
961,9615.166000000001,1.9453125,-0.25,-9.81640625,9613.45,0.0,0.0,0.0,9615.271999999999,-10.5,36.0,22.625
962,9624.934,1.93359375,-0.23828125,-9.8125,9623.616,0.0,0.0,0.0,9625.04,-9.8125,36.0,22.25
963,9634.869,1.9140625,-0.2109375,-9.76171875,9633.453,0.0,0.0,0.0,9634.876,-9.8125,35.625,22.25
964,9644.786,1.93359375,-0.23046875,-9.859375,9643.371000000001,0.0,0.0,0.0,9644.797,-10.1875,36.375,21.8125
965,9654.628,1.9140625,-0.2578125,-9.8046875,9653.216,0.0,0.0,0.0,9654.635,-9.4375,36.0,21.8125
966,9663.36,1.9140625,-0.2578125,-9.73828125,9663.23,0.0,0.0,0.0,9663.166000000001,-9.8125,36.375,21.8125
967,9676.212,1.90625,-0.2578125,-9.76953125,9674.485,0.0,0.0,0.0,9676.319,-9.8125,35.625,21.8125
968,9684.279,1.92578125,-0.23046875,-9.7734375,9682.964,0.0,0.0,0.0,9684.385,-9.4375,36.375,23.875
969,9694.203,1.87890625,-0.19140625,-9.7890625,9693.115,0.0,0.0,0.0,9694.212,-9.4375,35.625,23.4375
970,9704.065,1.92578125,-0.23046875,-9.796875,9703.575,0.0,0.0,0.0,9704.071,-9.0625,36.375,21.8125
971,9713.972,1.9140625,-0.26953125,-9.81640625,9713.373000000001,0.0,0.0,0.0,9713.785,-9.8125,36.375,22.25
972,9723.841999999999,1.88671875,-0.25,-9.796875,9723.341,0.0,0.0,0.0,9723.914,-9.4375,36.75,22.625
973,9733.627999999999,1.98046875,-0.2578125,-9.7578125,9733.286,0.0,0.0,0.0,9733.633,-8.3125,35.25,21.8125
974,9745.631,1.92578125,-0.2890625,-9.82421875,9743.544,0.0,0.0,0.0,9745.44,-9.4375,36.375,23.4375
975,9755.455,1.93359375,-0.23828125,-9.8125,9753.599,0.0,0.0,0.0,9755.464,-9.4375,36.0,23.0625
976,9765.189,1.92578125,-0.23828125,-9.80859375,9763.659,0.0,0.0,0.0,9765.299,-10.1875,36.375,22.25
977,9775.216,1.87890625,-0.27734375,-9.7265625,9773.484,0.0,0.0,0.0,9775.325,-10.5,36.0,22.625
978,9785.007,1.90625,-0.2109375,-9.73046875,9783.877,0.0,0.0,0.0,9785.116,-10.1875,36.75,21.0
979,9794.883,1.9453125,-0.2578125,-9.73828125,9793.553,0.0,0.0,0.0,9794.992,-9.0625,36.375,22.25
980,9804.891,1.93359375,-0.19921875,-9.80859375,9803.584,0.0,0.0,0.0,9804.8,-9.0625,34.5625,22.625
981,9814.632,1.89453125,-0.2109375,-9.80859375,9813.301,0.0,0.0,0.0,9814.741,-9.8125,35.625,23.875
982,9824.532,1.89453125,-0.2109375,-9.796875,9823.603000000001,0.0,0.0,0.0,9824.642000000002,-8.6875,35.625,22.625
983,9834.341999999999,1.90625,-0.21875,-9.83984375,9833.311,0.0,0.0,0.0,9834.351,-10.1875,36.75,22.625
984,9844.318,1.88671875,-0.21875,-9.73828125,9843.389000000001,0.0,0.0,0.0,9844.433,-9.4375,36.375,23.0625
985,9854.197,1.9140625,-0.23046875,-9.77734375,9853.279,0.0,0.0,0.0,9854.207,-9.8125,36.375,23.0625
986,9864.155,1.93359375,-0.25,-9.80859375,9863.452000000001,0.0,0.0,0.0,9864.164,-10.1875,36.0,22.625
987,9874.0,1.87890625,-0.19921875,-9.8046875,9873.382,0.0,0.0,0.0,9874.006,-9.8125,35.25,22.625
988,9883.953,1.93359375,-0.2890625,-9.85546875,9883.233,0.0,0.0,0.0,9883.822,-9.0625,35.625,22.625
989,9897.735,1.9453125,-0.23046875,-9.7578125,9893.283,0.0,0.0,0.0,9897.643,-9.8125,36.0,23.0625
990,9903.724,1.89453125,-0.25,-9.7734375,9903.637,0.0,0.0,0.0,9903.655,-10.1875,36.375,22.25
991,9915.473,1.92578125,-0.21875,-9.81640625,9913.614000000001,0.0,0.0,0.0,9915.480000000001,-9.8125,36.75,22.25
992,9925.267,1.87890625,-0.2578125,-9.80859375,9923.548,0.0,0.0,0.0,9925.177,-9.0625,35.25,23.0625
993,9935.213,1.90625,-0.26953125,-9.8046875,9933.684,0.0,0.0,0.0,9935.320000000002,-9.4375,35.625,22.25
994,9945.16,1.953125,-0.2109375,-9.7734375,9943.428000000002,0.0,0.0,0.0,9945.266,-10.1875,36.75,23.0625
995,9954.993,1.90625,-0.2578125,-9.83984375,9953.562,0.0,0.0,0.0,9955.0,-9.4375,35.625,22.625
996,9964.914999999999,1.96484375,-0.23828125,-9.8046875,9963.389,0.0,0.0,0.0,9964.824999999999,-9.8125,35.25,22.625
997,9974.736,1.9140625,-0.23046875,-9.79296875,9973.504,0.0,0.0,0.0,9974.742,-9.8125,36.375,23.0625
998,9984.622,1.90625,-0.23046875,-9.81640625,9983.19,0.0,0.0,0.0,9984.431,-8.6875,36.375,22.625
