,Acc_ts,Acc_x,Acc_y,Acc_z,Gyro_ts,Gyro_x,Gyro_y,Gyro_z,Mag_ts,Mag_x,Mag_y,Mag_z
0,0.158,1.944091796875,-0.2585737705230713,-9.854534149169922,0.0,0.001065264455974102,-0.001065264455974102,0.0,-6.159000000000001,157.0,-576.0,355.0
1,10.068999999999999,1.9536685943603516,-0.26815059781074524,-9.768342971801758,10.039,-0.0,-0.002130528911948204,0.0,3.497,145.0,-570.0,361.0
2,20.004,1.9345149993896484,-0.2777273952960968,-9.797073364257812,20.101999999999997,-0.001065264455974102,-0.003195793367922306,-0.001065264455974102,20.095,157.0,-576.0,368.0
3,29.822000000000003,1.9057846069335938,-0.26815059781074524,-9.84495735168457,30.075,-0.0,-0.003195793367922306,-0.002130528911948204,30.273999999999997,157.0,-576.0,374.0
4,39.741,1.9153614044189453,-0.2777273952960968,-9.816226959228516,39.979,0.001065264455974102,-0.003195793367922306,0.0,40.376000000000005,168.0,-582.0,355.0
5,49.65,1.9153614044189453,-0.22026655077934265,-9.84495735168457,50.001999999999995,-0.0,-0.004261057823896408,0.0,50.0,163.0,-582.0,361.0
6,59.48500000000001,1.886630892753601,-0.2298433631658554,-9.77791976928711,59.961,-0.0,-0.00532632227987051,0.0,60.16,157.0,-588.0,374.0
7,69.15599999999999,1.9057846069335938,-0.2777273952960968,-9.854534149169922,69.694,-0.0,-0.004261057823896408,-0.001065264455974102,69.994,157.0,-588.0,355.0
8,79.012,1.8962076902389526,-0.26815059781074524,-9.816226959228516,79.959,-0.0,-0.002130528911948204,-0.002130528911948204,80.15799999999999,168.0,-576.0,368.0
9,89.098,1.8962076902389526,-0.23942017555236816,-9.77791976928711,90.092,-0.0,-0.003195793367922306,-0.002130528911948204,90.09,163.0,-564.0,368.0
10,98.786,1.8962076902389526,-0.2968810200691223,-9.787496566772461,99.983,-0.0,-0.003195793367922306,-0.001065264455974102,100.18100000000001,145.0,-593.0,374.0
11,108.876,1.9057846069335938,-0.2585737705230713,-9.825803756713867,109.93799999999999,-0.0,-0.002130528911948204,-0.002130528911948204,110.136,139.0,-576.0,381.0
12,118.565,1.9153614044189453,-0.2298433631658554,-9.816226959228516,119.911,-0.0,0.0,-0.001065264455974102,120.109,145.0,-582.0,355.0
13,128.615,1.9153614044189453,-0.2106897532939911,-9.825803756713867,130.261,-0.0,0.002130528911948204,0.0,129.976,139.0,-576.0,361.0
14,140.234,1.8770540952682495,-0.23942017555236816,-9.84495735168457,140.27800000000002,-0.001065264455974102,0.002130528911948204,0.0,140.28799999999998,157.0,-570.0,374.0
15,150.226,1.9153614044189453,-0.24899697303771973,-9.816226959228516,150.323,-0.0,0.0,0.0,150.51600000000002,151.0,-588.0,361.0
16,160.22400000000002,1.9345149993896484,-0.2298433631658554,-9.864110946655273,160.327,-0.002130528911948204,-0.001065264455974102,-0.001065264455974102,160.51999999999998,151.0,-593.0,368.0
17,170.141,1.8579005002975464,-0.26815059781074524,-9.787496566772461,170.293,-0.002130528911948204,0.001065264455974102,0.0,170.286,157.0,-570.0,374.0
18,180.008,1.9249382019042969,-0.24899697303771973,-9.816226959228516,180.184,-0.002130528911948204,0.001065264455974102,0.0,180.377,157.0,-576.0,400.0
19,189.903,1.9249382019042969,-0.2298433631658554,-9.806650161743164,190.069,-0.002130528911948204,0.0,-0.001065264455974102,190.265,157.0,-576.0,355.0
20,199.794,1.8962076902389526,-0.26815059781074524,-9.825803756713867,200.04,-0.001065264455974102,-0.002130528911948204,-0.002130528911948204,200.246,163.0,-582.0,362.0
21,209.657,1.9153614044189453,-0.23942017555236816,-9.797073364257812,209.98600000000002,-0.001065264455974102,-0.003195793367922306,-0.001065264455974102,210.185,145.0,-570.0,355.0
22,219.62400000000002,1.8962076902389526,-0.2298433631658554,-9.883264541625977,219.974,-0.0,-0.003195793367922306,-0.001065264455974102,220.172,163.0,-570.0,368.0
23,229.411,1.9153614044189453,-0.24899697303771973,-9.77791976928711,229.74800000000002,0.001065264455974102,-0.002130528911948204,-0.001065264455974102,230.048,151.0,-588.0,375.0
24,239.29500000000002,1.8962076902389526,-0.24899697303771973,-9.758766174316406,239.657,-0.0,-0.002130528911948204,0.0,239.957,145.0,-570.0,387.0
25,249.182,1.9057846069335938,-0.2777273952960968,-9.864110946655273,249.977,-0.0,-0.001065264455974102,-0.001065264455974102,249.976,151.0,-564.0,381.0
26,258.87,1.8962076902389526,-0.22026655077934265,-9.806650161743164,260.05699999999996,-0.001065264455974102,-0.001065264455974102,0.0,260.256,163.0,-582.0,381.0
27,268.759,1.886630892753601,-0.2585737705230713,-9.787496566772461,270.04200000000003,-0.002130528911948204,-0.001065264455974102,0.0,270.241,157.0,-564.0,355.0
28,278.817,1.9249382019042969,-0.2106897532939911,-9.90241813659668,279.944,-0.003195793367922306,-0.001065264455974102,-0.001065264455974102,280.146,145.0,-576.0,368.0
29,288.50199999999995,1.9345149993896484,-0.2585737705230713,-9.816226959228516,290.13899999999995,-0.002130528911948204,-0.002130528911948204,-0.001065264455974102,289.937,157.0,-588.0,349.0
30,298.387,1.9057846069335938,-0.24899697303771973,-9.825803756713867,300.458,-0.002130528911948204,-0.003195793367922306,-0.001065264455974102,300.073,163.0,-582.0,375.0
31,310.269,1.886630892753601,-0.22026655077934265,-9.84495735168457,310.362,-0.0,-0.003195793367922306,0.0,310.355,145.0,-576.0,375.0
32,320.24399999999997,1.9345149993896484,-0.2777273952960968,-9.816226959228516,320.34299999999996,0.002130528911948204,-0.003195793367922306,0.001065264455974102,320.536,151.0,-576.0,375.0
33,330.25,1.8962076902389526,-0.2968810200691223,-9.835380554199219,330.349,0.001065264455974102,-0.003195793367922306,0.0,330.541,168.0,-582.0,362.0
34,340.117,1.9345149993896484,-0.26815059781074524,-9.77791976928711,340.05800000000005,-0.0,-0.003195793367922306,-0.001065264455974102,340.45,157.0,-588.0,362.0
35,349.979,1.867477297782898,-0.2585737705230713,-9.825803756713867,350.148,-0.001065264455974102,-0.002130528911948204,-0.001065264455974102,350.345,145.0,-576.0,375.0
36,359.88,1.9057846069335938,-0.23942017555236816,-9.787496566772461,359.935,-0.0,-0.001065264455974102,-0.001065264455974102,360.33700000000005,151.0,-582.0,355.0
37,369.711,1.886630892753601,-0.2585737705230713,-9.825803756713867,370.033,-0.001065264455974102,-0.001065264455974102,-0.001065264455974102,370.233,157.0,-576.0,375.0
38,379.676,1.9057846069335938,-0.23942017555236816,-9.825803756713867,380.031,-0.001065264455974102,-0.002130528911948204,0.0,380.231,151.0,-588.0,368.0
39,389.29200000000003,1.8962076902389526,-0.24899697303771973,-9.758766174316406,390.185,-0.001065264455974102,-0.001065264455974102,-0.001065264455974102,390.183,145.0,-576.0,381.0
40,399.37899999999996,1.9153614044189453,-0.2968810200691223,-9.854534149169922,399.871,-0.0,0.0,-0.001065264455974102,400.07,157.0,-582.0,381.0
41,409.069,1.9153614044189453,-0.24899697303771973,-9.835380554199219,409.86499999999995,-0.0,0.001065264455974102,-0.002130528911948204,409.96500000000003,139.0,-576.0,368.0
42,419.122,1.9345149993896484,-0.28730419278144836,-9.77791976928711,420.037,-0.001065264455974102,0.001065264455974102,-0.002130528911948204,419.844,157.0,-588.0,381.0
43,428.818,1.9153614044189453,-0.2298433631658554,-9.854534149169922,430.031,-0.0,0.001065264455974102,-0.001065264455974102,430.029,151.0,-588.0,362.0
44,438.697,1.8770540952682495,-0.2298433631658554,-9.84495735168457,440.02599999999995,0.001065264455974102,0.001065264455974102,-0.001065264455974102,440.224,157.0,-576.0,355.0
45,448.586,1.9249382019042969,-0.24899697303771973,-9.84495735168457,449.946,0.001065264455974102,0.0,-0.001065264455974102,450.14500000000004,151.0,-582.0,381.0
46,458.476,1.9249382019042969,-0.23942017555236816,-9.825803756713867,459.986,-0.001065264455974102,-0.001065264455974102,-0.002130528911948204,460.185,145.0,-576.0,375.0
47,470.221,1.886630892753601,-0.26815059781074524,-9.825803756713867,470.294,-0.001065264455974102,-0.002130528911948204,-0.002130528911948204,470.103,151.0,-593.0,375.0
48,480.29699999999997,1.9153614044189453,-0.24899697303771973,-9.873687744140625,480.396,-0.001065264455974102,-0.003195793367922306,0.0,480.588,139.0,-588.0,388.0
49,490.27500000000003,1.8770540952682495,-0.24899697303771973,-9.816226959228516,490.21999999999997,-0.0,-0.004261057823896408,-0.001065264455974102,490.616,133.0,-570.0,362.0
50,500.204,1.8962076902389526,-0.28730419278144836,-9.806650161743164,500.425,-0.001065264455974102,-0.00532632227987051,-0.002130528911948204,500.62600000000003,133.0,-605.0,362.0
51,510.03,1.9153614044189453,-0.2298433631658554,-9.835380554199219,510.19599999999997,-0.001065264455974102,-0.00532632227987051,-0.002130528911948204,510.587,151.0,-582.0,349.0
52,519.959,1.9057846069335938,-0.23942017555236816,-9.806650161743164,519.894,-0.001065264455974102,-0.003195793367922306,-0.002130528911948204,520.2900000000001,151.0,-564.0,368.0
53,529.852,1.9057846069335938,-0.28730419278144836,-9.892841339111328,530.077,-0.001065264455974102,-0.001065264455974102,-0.002130528911948204,530.079,145.0,-564.0,375.0
54,539.5600000000001,1.8962076902389526,-0.23942017555236816,-9.864110946655273,539.919,-0.001065264455974102,0.0,-0.002130528911948204,540.318,128.0,-570.0,368.0
55,549.594,1.8962076902389526,-0.24899697303771973,-9.84495735168457,549.906,-0.001065264455974102,0.0,-0.002130528911948204,550.206,151.0,-588.0,375.0
56,559.434,1.9057846069335938,-0.24899697303771973,-9.797073364257812,559.755,-0.001065264455974102,0.0,-0.002130528911948204,560.255,157.0,-564.0,375.0
57,569.1220000000001,1.9345149993896484,-0.26815059781074524,-9.835380554199219,570.049,-0.0,0.0,-0.001065264455974102,570.052,133.0,-570.0,368.0
58,579.208,1.886630892753601,-0.23942017555236816,-9.806650161743164,580.1129999999999,-0.001065264455974102,0.0,0.0,580.111,139.0,-582.0,362.0
59,588.899,1.8579005002975464,-0.2585737705230713,-9.797073364257812,590.086,-0.002130528911948204,-0.001065264455974102,0.0,590.283,151.0,-582.0,375.0
60,598.782,1.8770540952682495,-0.2585737705230713,-9.84495735168457,600.23,-0.002130528911948204,0.0,-0.002130528911948204,600.231,145.0,-576.0,375.0
61,608.8679999999999,1.8962076902389526,-0.28730419278144836,-9.758766174316406,610.235,-0.001065264455974102,-0.001065264455974102,-0.002130528911948204,610.235,163.0,-576.0,368.0
62,618.524,1.9249382019042969,-0.2298433631658554,-9.825803756713867,620.54,-0.0,-0.002130528911948204,-0.002130528911948204,620.155,174.0,-576.0,362.0
63,630.049,1.886630892753601,-0.2777273952960968,-9.806650161743164,630.3349999999999,-0.0,-0.001065264455974102,-0.001065264455974102,630.349,151.0,-576.0,362.0
64,640.3259999999999,1.9249382019042969,-0.26815059781074524,-9.797073364257812,640.422,-0.001065264455974102,-0.001065264455974102,-0.001065264455974102,640.615,157.0,-553.0,368.0
65,650.325,1.8770540952682495,-0.23942017555236816,-9.816226959228516,650.4290000000001,-0.003195793367922306,-0.001065264455974102,0.0,650.6220000000001,151.0,-576.0,355.0
66,660.2479999999999,1.9153614044189453,-0.23942017555236816,-9.77791976928711,660.199,-0.002130528911948204,-0.001065264455974102,0.0,660.591,157.0,-576.0,368.0
67,670.1160000000001,1.944091796875,-0.2585737705230713,-9.825803756713867,670.284,-0.002130528911948204,-0.002130528911948204,0.0,670.479,168.0,-576.0,375.0
68,680.0070000000001,1.886630892753601,-0.24899697303771973,-9.816226959228516,679.9739999999999,-0.001065264455974102,-0.001065264455974102,-0.001065264455974102,680.569,145.0,-582.0,375.0
69,689.902,1.9153614044189453,-0.24899697303771973,-9.787496566772461,690.149,-0.0,-0.001065264455974102,0.0,690.351,157.0,-570.0,381.0
70,699.7330000000001,1.9249382019042969,-0.2585737705230713,-9.835380554199219,700.058,-0.001065264455974102,-0.002130528911948204,-0.001065264455974102,700.256,168.0,-576.0,381.0
71,709.701,1.8962076902389526,-0.23942017555236816,-9.806650161743164,710.05,-0.0,-0.002130528911948204,-0.001065264455974102,710.254,151.0,-582.0,368.0
72,719.3159999999999,1.9153614044189453,-0.20111294090747833,-9.873687744140625,719.8489999999999,-0.0,-0.001065264455974102,-0.001065264455974102,720.149,151.0,-593.0,381.0
73,729.402,1.9057846069335938,-0.2298433631658554,-9.84495735168457,729.7620000000001,-0.001065264455974102,-0.001065264455974102,-0.001065264455974102,730.062,145.0,-564.0,368.0
74,739.0980000000001,1.9249382019042969,-0.2298433631658554,-9.854534149169922,740.045,-0.001065264455974102,-0.002130528911948204,-0.001065264455974102,740.0459999999999,157.0,-594.0,355.0
75,749.145,1.9345149993896484,-0.2585737705230713,-9.84495735168457,750.1419999999999,-0.0,-0.002130528911948204,-0.001065264455974102,750.141,163.0,-576.0,362.0
76,759.0329999999999,1.886630892753601,-0.2777273952960968,-9.816226959228516,760.116,-0.001065264455974102,-0.002130528911948204,-0.001065264455974102,760.3140000000001,151.0,-570.0,375.0
77,768.7239999999999,1.9249382019042969,-0.2298433631658554,-9.787496566772461,770.0500000000001,-0.001065264455974102,-0.002130528911948204,-0.001065264455974102,770.2529999999999,157.0,-564.0,375.0
78,778.808,1.9153614044189453,-0.2298433631658554,-9.806650161743164,780.0559999999999,-0.0,-0.002130528911948204,-0.001065264455974102,780.254,145.0,-588.0,349.0
79,790.141,1.9153614044189453,-0.24899697303771973,-9.825803756713867,790.327,0.001065264455974102,-0.002130528911948204,-0.001065264455974102,790.141,145.0,-576.0,381.0
80,800.337,1.9057846069335938,-0.2585737705230713,-9.768342971801758,800.44,0.001065264455974102,-0.001065264455974102,-0.001065264455974102,800.432,151.0,-588.0,381.0
81,810.354,1.9153614044189453,-0.22026655077934265,-9.825803756713867,810.448,-0.0,-0.001065264455974102,-0.001065264455974102,810.641,151.0,-576.0,368.0
82,820.3589999999999,1.9536685943603516,-0.2777273952960968,-9.825803756713867,820.545,-0.001065264455974102,-0.001065264455974102,-0.001065264455974102,820.543,151.0,-576.0,368.0
83,830.176,1.8962076902389526,-0.19153612852096558,-9.873687744140625,830.342,-0.001065264455974102,0.0,-0.001065264455974102,830.535,151.0,-570.0,375.0
84,840.058,1.9249382019042969,-0.23942017555236816,-9.854534149169922,840.222,-0.001065264455974102,0.0,-0.001065264455974102,840.6139999999999,163.0,-576.0,381.0
85,849.953,1.886630892753601,-0.23942017555236816,-9.797073364257812,849.921,-0.0,0.001065264455974102,-0.001065264455974102,850.5129999999999,174.0,-564.0,368.0
86,859.8130000000001,1.8962076902389526,-0.2585737705230713,-9.806650161743164,860.144,-0.0,0.001065264455974102,-0.002130528911948204,860.343,151.0,-576.0,381.0
87,869.755,1.9057846069335938,-0.2585737705230713,-9.787496566772461,870.115,-0.0,0.001065264455974102,-0.001065264455974102,870.313,163.0,-576.0,368.0
88,879.371,1.9057846069335938,-0.2106897532939911,-9.883264541625977,879.9019999999999,-0.0,-0.001065264455974102,0.0,880.202,157.0,-582.0,388.0
89,889.4649999999999,1.9057846069335938,-0.24899697303771973,-9.787496566772461,889.815,-0.0,-0.001065264455974102,-0.001065264455974102,890.115,145.0,-594.0,375.0
90,899.1479999999999,1.9153614044189453,-0.2298433631658554,-9.835380554199219,900.089,-0.001065264455974102,-0.002130528911948204,0.0,900.2869999999999,163.0,-594.0,381.0
91,909.002,1.9345149993896484,-0.23942017555236816,-9.758766174316406,910.002,-0.001065264455974102,-0.002130528911948204,0.0,910.203,145.0,-576.0,362.0
92,918.892,1.9153614044189453,-0.26815059781074524,-9.835380554199219,920.175,-0.001065264455974102,-0.003195793367922306,0.001065264455974102,920.373,151.0,-588.0,368.0
93,928.9730000000001,1.9057846069335938,-0.2585737705230713,-9.806650161743164,930.022,-0.0,-0.002130528911948204,0.0,930.4200000000001,163.0,-588.0,356.0
94,938.663,1.8962076902389526,-0.2298433631658554,-9.806650161743164,940.076,-0.0,-0.001065264455974102,-0.002130528911948204,940.078,145.0,-588.0,368.0
95,948.721,1.8962076902389526,-0.2585737705230713,-9.77791976928711,950.3810000000001,-0.0,0.0,-0.001065264455974102,950.198,151.0,-582.0,375.0
96,960.3660000000001,1.944091796875,-0.2585737705230713,-9.797073364257812,960.4240000000001,-0.002130528911948204,-0.001065264455974102,-0.001065264455974102,960.419,151.0,-588.0,381.0
97,970.3739999999999,1.9057846069335938,-0.24899697303771973,-9.84495735168457,970.472,-0.002130528911948204,-0.001065264455974102,-0.001065264455974102,970.668,151.0,-564.0,381.0
98,980.389,1.8962076902389526,-0.26815059781074524,-9.835380554199219,980.485,-0.001065264455974102,0.0,-0.001065264455974102,980.677,157.0,-594.0,375.0
99,990.241,1.9057846069335938,-0.23942017555236816,-9.835380554199219,990.232,-0.001065264455974102,-0.001065264455974102,-0.001065264455974102,990.6239999999999,151.0,-576.0,368.0
100,1000.1150000000001,1.9057846069335938,-0.24899697303771973,-9.787496566772461,1000.076,-0.0,-0.001065264455974102,-0.001065264455974102,1000.6669999999999,163.0,-588.0,362.0
101,1010.011,1.9249382019042969,-0.26815059781074524,-9.806650161743164,1010.254,-0.0,-0.001065264455974102,-0.001065264455974102,1010.4519999999999,145.0,-588.0,362.0
102,1019.8240000000001,1.9249382019042969,-0.2298433631658554,-9.797073364257812,1020.155,-0.0,-0.001065264455974102,-0.001065264455974102,1020.3539999999999,151.0,-588.0,356.0
103,1029.807,1.944091796875,-0.2585737705230713,-9.864110946655273,1030.154,-0.0,-0.001065264455974102,-0.001065264455974102,1030.153,168.0,-570.0,362.0
104,1039.6209999999999,1.9153614044189453,-0.26815059781074524,-9.825803756713867,1040.1100000000001,-0.0,-0.001065264455974102,-0.001065264455974102,1040.308,151.0,-559.0,362.0
105,1049.509,1.8962076902389526,-0.24899697303771973,-9.84495735168457,1049.847,-0.0,-0.002130528911948204,-0.002130528911948204,1050.147,157.0,-570.0,375.0
106,1059.395,1.9153614044189453,-0.23942017555236816,-9.806650161743164,1060.147,-0.0,-0.002130528911948204,-0.002130528911948204,1060.145,157.0,-576.0,362.0
107,1069.056,1.9249382019042969,-0.26815059781074524,-9.873687744140625,1070.0339999999999,-0.0,-0.003195793367922306,-0.001065264455974102,1070.432,145.0,-588.0,388.0
108,1078.94,1.8483237028121948,-0.2585737705230713,-9.825803756713867,1080.132,-0.0,-0.002130528911948204,-0.001065264455974102,1080.529,157.0,-576.0,388.0
109,1089.06,1.886630892753601,-0.2585737705230713,-9.84495735168457,1090.165,-0.0,-0.001065264455974102,0.0,1090.163,151.0,-570.0,369.0
110,1098.9150000000002,1.9249382019042969,-0.26815059781074524,-9.816226959228516,1100.298,-0.001065264455974102,0.0,0.0,1100.296,163.0,-576.0,362.0
111,1108.578,1.886630892753601,-0.2585737705230713,-9.816226959228516,1110.6119999999999,-0.002130528911948204,-0.001065264455974102,-0.001065264455974102,1110.227,145.0,-564.0,368.0
112,1120.426,1.9153614044189453,-0.2298433631658554,-9.758766174316406,1120.47,-0.001065264455974102,-0.001065264455974102,-0.001065264455974102,1120.466,157.0,-570.0,388.0
113,1130.4050000000002,1.9249382019042969,-0.24899697303771973,-9.825803756713867,1130.498,-0.0,0.0,-0.001065264455974102,1130.692,163.0,-594.0,375.0
114,1140.407,1.886630892753601,-0.2777273952960968,-9.825803756713867,1140.504,-0.001065264455974102,-0.001065264455974102,-0.001065264455974102,1140.696,145.0,-582.0,369.0
115,1150.298,1.9345149993896484,-0.2298433631658554,-9.806650161743164,1150.444,-0.001065264455974102,-0.001065264455974102,0.0,1150.637,151.0,-570.0,356.0
116,1160.164,1.9153614044189453,-0.24899697303771973,-9.854534149169922,1160.326,-0.001065264455974102,-0.002130528911948204,-0.001065264455974102,1160.717,163.0,-576.0,362.0
117,1170.055,1.9249382019042969,-0.2585737705230713,-9.758766174316406,1170.2140000000002,-0.001065264455974102,-0.002130528911948204,-0.002130528911948204,1170.606,145.0,-576.0,362.0
118,1179.9550000000002,1.8962076902389526,-0.2298433631658554,-9.816226959228516,1180.207,-0.003195793367922306,-0.002130528911948204,-0.002130528911948204,1180.405,151.0,-588.0,369.0
119,1189.6899999999998,1.886630892753601,-0.2298433631658554,-9.835380554199219,1190.044,-0.003195793367922306,-0.002130528911948204,-0.002130528911948204,1190.442,151.0,-576.0,362.0
120,1199.474,1.886630892753601,-0.22026655077934265,-9.816226959228516,1200.364,-0.002130528911948204,-0.002130528911948204,0.0,1200.3619999999999,157.0,-582.0,369.0
121,1209.3670000000002,1.9249382019042969,-0.24899697303771973,-9.77791976928711,1210.285,-0.001065264455974102,-0.002130528911948204,0.0,1210.285,151.0,-576.0,368.0
122,1219.249,1.8962076902389526,-0.22026655077934265,-9.768342971801758,1219.854,-0.001065264455974102,-0.002130528911948204,-0.001065264455974102,1220.154,151.0,-594.0,369.0
123,1229.136,1.9057846069335938,-0.26815059781074524,-9.768342971801758,1230.169,-0.0,-0.002130528911948204,-0.001065264455974102,1230.168,157.0,-582.0,362.0
124,1239.195,1.8770540952682495,-0.23942017555236816,-9.854534149169922,1240.192,-0.0,-0.001065264455974102,-0.001065264455974102,1240.1899999999998,151.0,-582.0,388.0
125,1249.079,1.9057846069335938,-0.24899697303771973,-9.873687744140625,1250.231,-0.001065264455974102,-0.001065264455974102,-0.001065264455974102,1250.229,163.0,-582.0,382.0
126,1258.968,1.9345149993896484,-0.26815059781074524,-9.77791976928711,1260.301,-0.002130528911948204,0.0,-0.001065264455974102,1260.298,145.0,-576.0,362.0
127,1268.654,1.9345149993896484,-0.2585737705230713,-9.787496566772461,1270.17,-0.001065264455974102,0.001065264455974102,0.0,1270.168,151.0,-582.0,381.0
128,1280.1290000000001,1.8962076902389526,-0.2585737705230713,-9.787496566772461,1280.1309999999999,-0.001065264455974102,0.001065264455974102,-0.001065264455974102,1280.1290000000001,151.0,-576.0,382.0
129,1290.446,1.886630892753601,-0.2298433631658554,-9.825803756713867,1290.554,-0.001065264455974102,0.0,-0.001065264455974102,1290.346,151.0,-588.0,375.0
130,1300.44,1.9057846069335938,-0.23942017555236816,-9.816226959228516,1300.529,-0.001065264455974102,-0.001065264455974102,-0.001065264455974102,1300.722,168.0,-576.0,382.0
131,1310.4009999999998,1.9153614044189453,-0.26815059781074524,-9.797073364257812,1310.507,-0.0,-0.001065264455974102,-0.001065264455974102,1310.7,163.0,-576.0,349.0
132,1320.2160000000001,1.886630892753601,-0.26815059781074524,-9.84495735168457,1320.3780000000002,0.002130528911948204,-0.002130528911948204,-0.001065264455974102,1320.769,151.0,-582.0,368.0
133,1330.099,1.9057846069335938,-0.28730419278144836,-9.835380554199219,1330.263,0.001065264455974102,-0.002130528911948204,0.0,1330.654,145.0,-599.0,362.0
134,1340.0,1.9345149993896484,-0.24899697303771973,-9.787496566772461,1340.1680000000001,-0.0,-0.003195793367922306,0.0,1340.36,122.0,-564.0,382.0
135,1349.859,1.9153614044189453,-0.22026655077934265,-9.797073364257812,1350.1860000000001,-0.001065264455974102,-0.002130528911948204,-0.001065264455974102,1350.384,151.0,-582.0,382.0
136,1359.75,1.9345149993896484,-0.2106897532939911,-9.854534149169922,1360.0529999999999,-0.002130528911948204,-0.001065264455974102,-0.001065264455974102,1360.3529999999998,151.0,-582.0,369.0
137,1369.6200000000001,1.9345149993896484,-0.2968810200691223,-9.749189376831055,1369.937,-0.002130528911948204,-0.001065264455974102,-0.003195793367922306,1370.437,157.0,-576.0,375.0
138,1379.507,1.944091796875,-0.2777273952960968,-9.854534149169922,1379.846,-0.001065264455974102,-0.001065264455974102,-0.002130528911948204,1380.1460000000002,157.0,-570.0,382.0
139,1389.3660000000002,2.0207061767578125,-0.28730419278144836,-9.806650161743164,1390.217,-0.002130528911948204,-0.001065264455974102,-0.002130528911948204,1390.215,157.0,-582.0,369.0
140,1399.0549999999998,1.9728221893310547,-0.2106897532939911,-9.758766174316406,1400.241,-0.001065264455974102,-0.001065264455974102,-0.001065264455974102,1400.442,157.0,-570.0,394.0
141,1409.134,1.9153614044189453,-0.2106897532939911,-9.806650161743164,1410.1950000000002,-0.001065264455974102,0.0,-0.001065264455974102,1410.394,151.0,-570.0,356.0
142,1419.019,1.9153614044189453,-0.2777273952960968,-9.797073364257812,1420.401,-0.0,0.0,-0.001065264455974102,1420.4,157.0,-582.0,362.0
143,1428.709,1.867477297782898,-0.2106897532939911,-9.854534149169922,1430.722,-0.0,0.0,-0.001065264455974102,1430.337,157.0,-564.0,375.0
144,1440.212,1.9153614044189453,-0.22026655077934265,-9.787496566772461,1440.4969999999998,-0.001065264455974102,0.0,-0.001065264455974102,1440.512,168.0,-570.0,369.0
145,1450.474,1.8962076902389526,-0.2777273952960968,-9.787496566772461,1450.568,-0.002130528911948204,-0.001065264455974102,-0.001065264455974102,1450.76,151.0,-594.0,356.0
146,1460.482,1.9536685943603516,-0.2585737705230713,-9.797073364257812,1460.58,-0.001065264455974102,-0.002130528911948204,-0.001065264455974102,1460.7730000000001,163.0,-588.0,369.0
147,1470.394,1.9249382019042969,-0.24899697303771973,-9.797073364257812,1470.544,-0.0,-0.003195793367922306,-0.001065264455974102,1470.736,145.0,-588.0,362.0
148,1480.2759999999998,1.9249382019042969,-0.23942017555236816,-9.84495735168457,1480.434,0.001065264455974102,-0.003195793367922306,-0.001065264455974102,1480.826,157.0,-582.0,369.0
149,1490.153,1.9057846069335938,-0.23942017555236816,-9.816226959228516,1490.363,-0.0,-0.003195793367922306,-0.001065264455974102,1490.555,151.0,-576.0,382.0
150,1500.052,1.9057846069335938,-0.22026655077934265,-9.77791976928711,1500.309,-0.0,-0.004261057823896408,-0.001065264455974102,1500.508,157.0,-570.0,369.0
151,1509.885,1.886630892753601,-0.20111294090747833,-9.854534149169922,1510.208,-0.0,-0.004261057823896408,-0.002130528911948204,1510.4089999999999,151.0,-582.0,362.0
152,1519.652,1.9057846069335938,-0.2298433631658554,-9.797073364257812,1520.206,-0.0,-0.001065264455974102,-0.001065264455974102,1520.408,157.0,-588.0,356.0
153,1529.1380000000001,1.8962076902389526,-0.22026655077934265,-9.816226959228516,1530.338,-0.001065264455974102,0.002130528911948204,-0.001065264455974102,1530.3400000000001,151.0,-582.0,369.0
154,1539.3570000000002,1.9153614044189453,-0.24899697303771973,-9.806650161743164,1539.862,-0.0,0.004261057823896408,-0.001065264455974102,1540.362,163.0,-582.0,362.0
155,1549.411,1.8962076902389526,-0.24899697303771973,-9.739612579345703,1550.29,0.001065264455974102,0.004261057823896408,-0.001065264455974102,1550.287,151.0,-570.0,356.0
156,1559.102,1.8962076902389526,-0.26815059781074524,-9.816226959228516,1560.295,0.001065264455974102,0.002130528911948204,-0.002130528911948204,1560.493,163.0,-582.0,362.0
157,1568.986,1.9345149993896484,-0.2585737705230713,-9.835380554199219,1570.4769999999999,0.001065264455974102,0.001065264455974102,-0.002130528911948204,1570.4750000000001,133.0,-576.0,369.0
158,1578.875,1.9345149993896484,-0.26815059781074524,-9.835380554199219,1580.1909999999998,0.001065264455974102,-0.001065264455974102,-0.002130528911948204,1580.3890000000001,163.0,-582.0,375.0
159,1588.76,1.886630892753601,-0.23942017555236816,-9.806650161743164,1590.396,-0.0,-0.002130528911948204,-0.001065264455974102,1590.1940000000002,151.0,-582.0,375.0
160,1600.286,1.944091796875,-0.2298433631658554,-9.806650161743164,1600.471,-0.0,-0.003195793367922306,-0.001065264455974102,1600.286,139.0,-605.0,369.0
161,1610.5,1.9153614044189453,-0.23942017555236816,-9.825803756713867,1610.592,0.001065264455974102,-0.002130528911948204,-0.002130528911948204,1610.584,145.0,-570.0,369.0
162,1620.5,1.886630892753601,-0.2298433631658554,-9.825803756713867,1620.5929999999998,0.001065264455974102,-0.002130528911948204,-0.001065264455974102,1620.786,163.0,-576.0,375.0
163,1630.482,1.8962076902389526,-0.24899697303771973,-9.816226959228516,1630.577,0.001065264455974102,-0.003195793367922306,-0.001065264455974102,1630.769,139.0,-576.0,369.0
164,1640.344,1.9057846069335938,-0.23942017555236816,-9.768342971801758,1640.494,-0.0,-0.003195793367922306,-0.001065264455974102,1640.6860000000001,163.0,-564.0,349.0
165,1650.213,1.8770540952682495,-0.24899697303771973,-9.787496566772461,1650.377,-0.001065264455974102,-0.003195793367922306,-0.001065264455974102,1650.573,139.0,-576.0,375.0
166,1660.115,1.8770540952682495,-0.3064578175544739,-9.77791976928711,1660.359,-0.001065264455974102,-0.001065264455974102,-0.002130528911948204,1660.557,139.0,-576.0,375.0
167,1669.975,1.8770540952682495,-0.28730419278144836,-9.787496566772461,1670.301,-0.001065264455974102,-0.001065264455974102,-0.001065264455974102,1670.5030000000002,145.0,-576.0,382.0
168,1679.903,1.886630892753601,-0.23942017555236816,-9.806650161743164,1680.255,-0.001065264455974102,-0.001065264455974102,0.0,1680.454,151.0,-582.0,362.0
169,1689.5249999999999,1.9057846069335938,-0.2585737705230713,-9.816226959228516,1690.4170000000001,-0.001065264455974102,0.0,0.0,1690.415,157.0,-564.0,375.0
170,1699.4089999999999,1.9345149993896484,-0.23942017555236816,-9.84495735168457,1699.9679999999998,-0.003195793367922306,-0.001065264455974102,-0.001065264455974102,1700.2679999999998,145.0,-576.0,369.0
171,1709.2959999999998,1.8962076902389526,-0.2106897532939911,-9.864110946655273,1710.063,-0.002130528911948204,-0.001065264455974102,-0.001065264455974102,1710.363,151.0,-559.0,362.0
172,1719.152,1.8962076902389526,-0.2777273952960968,-9.77791976928711,1720.356,-0.001065264455974102,0.0,-0.001065264455974102,1720.154,157.0,-582.0,362.0
173,1729.24,1.8962076902389526,-0.24899697303771973,-9.84495735168457,1730.323,-0.002130528911948204,0.0,-0.001065264455974102,1730.52,157.0,-588.0,369.0
174,1739.125,1.9249382019042969,-0.2298433631658554,-9.864110946655273,1740.21,-0.002130528911948204,0.0,-0.001065264455974102,1740.607,145.0,-582.0,356.0
175,1748.9840000000002,1.9057846069335938,-0.23942017555236816,-9.758766174316406,1750.247,-0.002130528911948204,-0.001065264455974102,0.0,1750.445,163.0,-576.0,362.0
176,1760.357,1.9153614044189453,-0.2585737705230713,-9.797073364257812,1760.5420000000001,-0.002130528911948204,-0.001065264455974102,0.0,1760.357,163.0,-582.0,362.0
177,1770.52,1.8770540952682495,-0.24899697303771973,-9.825803756713867,1770.576,-0.001065264455974102,-0.002130528911948204,0.0,1770.7679999999998,151.0,-588.0,375.0
178,1780.526,1.9057846069335938,-0.24899697303771973,-9.787496566772461,1780.626,-0.002130528911948204,-0.002130528911948204,-0.001065264455974102,1780.822,157.0,-582.0,356.0
179,1790.5359999999998,1.9153614044189453,-0.26815059781074524,-9.797073364257812,1790.638,-0.001065264455974102,-0.002130528911948204,-0.002130528911948204,1790.8329999999999,151.0,-594.0,362.0
180,1800.3929999999998,1.9057846069335938,-0.22026655077934265,-9.84495735168457,1800.337,-0.002130528911948204,-0.003195793367922306,-0.001065264455974102,1800.732,151.0,-576.0,362.0
181,1810.267,1.9057846069335938,-0.23942017555236816,-9.797073364257812,1810.529,-0.002130528911948204,-0.003195793367922306,-0.002130528911948204,1810.73,168.0,-582.0,362.0
182,1820.132,1.9153614044189453,-0.28730419278144836,-9.825803756713867,1820.087,-0.001065264455974102,-0.001065264455974102,-0.002130528911948204,1820.6789999999999,157.0,-582.0,369.0
183,1830.0,1.9153614044189453,-0.2298433631658554,-9.84495735168457,1830.318,-0.0,-0.001065264455974102,-0.003195793367922306,1830.516,151.0,-594.0,369.0
184,1839.757,1.9057846069335938,-0.26815059781074524,-9.825803756713867,1840.303,-0.0,-0.001065264455974102,-0.003195793367922306,1840.501,163.0,-588.0,362.0
185,1849.7740000000001,1.8962076902389526,-0.28730419278144836,-9.835380554199219,1850.263,0.001065264455974102,-0.001065264455974102,-0.002130528911948204,1850.4640000000002,151.0,-576.0,369.0
186,1859.6280000000002,1.9249382019042969,-0.24899697303771973,-9.883264541625977,1859.987,0.001065264455974102,-0.002130528911948204,-0.001065264455974102,1860.287,145.0,-582.0,388.0
187,1869.52,1.9057846069335938,-0.2106897532939911,-9.825803756713867,1870.274,-0.002130528911948204,-0.002130528911948204,0.0,1870.2730000000001,139.0,-576.0,362.0
188,1879.205,1.9153614044189453,-0.23942017555236816,-9.749189376831055,1880.214,-0.002130528911948204,-0.002130528911948204,0.0,1880.211,157.0,-576.0,382.0
189,1889.2910000000002,1.9249382019042969,-0.23942017555236816,-9.77791976928711,1890.406,-0.001065264455974102,-0.003195793367922306,0.0,1890.404,157.0,-576.0,375.0
190,1899.1499999999999,1.9153614044189453,-0.2585737705230713,-9.787496566772461,1900.227,-0.001065264455974102,-0.003195793367922306,-0.001065264455974102,1900.624,163.0,-570.0,375.0
191,1908.835,1.9057846069335938,-0.24899697303771973,-9.816226959228516,1910.258,-0.001065264455974102,-0.003195793367922306,-0.002130528911948204,1910.2559999999999,163.0,-576.0,349.0
192,1918.9270000000001,1.9153614044189453,-0.2298433631658554,-9.84495735168457,1920.556,-0.001065264455974102,-0.002130528911948204,-0.001065264455974102,1920.371,163.0,-576.0,401.0
193,1930.58,1.9153614044189453,-0.22026655077934265,-9.797073364257812,1930.6689999999999,-0.001065264455974102,-0.001065264455974102,0.0,1930.665,139.0,-570.0,356.0
194,1940.551,1.8962076902389526,-0.2968810200691223,-9.835380554199219,1940.6490000000001,-0.001065264455974102,0.0,0.0,1940.8419999999999,163.0,-564.0,343.0
195,1950.5639999999999,1.886630892753601,-0.26815059781074524,-9.797073364257812,1950.464,-0.0,-0.001065264455974102,-0.001065264455974102,1950.856,163.0,-582.0,356.0
196,1960.4479999999999,1.9249382019042969,-0.2298433631658554,-9.787496566772461,1960.69,-0.0,0.0,-0.001065264455974102,1960.8890000000001,163.0,-588.0,369.0
197,1970.286,1.9057846069335938,-0.2585737705230713,-9.835380554199219,1970.252,-0.0,0.001065264455974102,-0.001065264455974102,1970.844,151.0,-564.0,382.0
198,1980.1779999999999,1.9632453918457031,-0.2298433631658554,-9.797073364257812,1980.232,-0.0,0.002130528911948204,-0.001065264455974102,1980.6299999999999,168.0,-576.0,375.0
199,1990.09,1.9345149993896484,-0.24899697303771973,-9.787496566772461,1990.3919999999998,-0.001065264455974102,0.001065264455974102,-0.001065264455974102,1990.5900000000001,133.0,-570.0,362.0
200,2000.0130000000001,1.8770540952682495,-0.2585737705230713,-9.787496566772461,2000.362,-0.001065264455974102,0.0,-0.002130528911948204,2000.563,151.0,-576.0,362.0
201,2009.798,1.9345149993896484,-0.23942017555236816,-9.768342971801758,2010.2959999999998,-0.0,-0.001065264455974102,-0.002130528911948204,2010.497,151.0,-576.0,388.0
202,2019.6879999999999,1.9057846069335938,-0.24899697303771973,-9.77791976928711,2020.425,-0.001065264455974102,-0.001065264455974102,0.0,2020.423,139.0,-582.0,369.0
203,2029.576,1.9536685943603516,-0.26815059781074524,-9.758766174316406,2029.97,-0.0,-0.001065264455974102,0.0,2030.2699999999998,151.0,-582.0,382.0
204,2039.457,1.9249382019042969,-0.23942017555236816,-9.84495735168457,2040.391,-0.0,-0.003195793367922306,0.0,2040.1889999999999,163.0,-576.0,362.0
205,2049.3160000000003,1.886630892753601,-0.3064578175544739,-9.797073364257812,2050.338,-0.001065264455974102,-0.003195793367922306,-0.001065264455974102,2050.537,157.0,-576.0,356.0
206,2059.201,1.8962076902389526,-0.2777273952960968,-9.787496566772461,2060.392,-0.002130528911948204,-0.003195793367922306,-0.001065264455974102,2060.393,163.0,-564.0,369.0
207,2069.091,1.9153614044189453,-0.23942017555236816,-9.825803756713867,2070.4500000000003,-0.002130528911948204,-0.003195793367922306,-0.001065264455974102,2070.451,139.0,-576.0,375.0
208,2078.975,1.8770540952682495,-0.24899697303771973,-9.816226959228516,2080.622,-0.003195793367922306,-0.004261057823896408,-0.001065264455974102,2080.337,151.0,-570.0,356.0
209,2090.594,1.9057846069335938,-0.28730419278144836,-9.77791976928711,2090.645,-0.002130528911948204,-0.004261057823896408,-0.002130528911948204,2090.6380000000004,139.0,-576.0,369.0
210,2100.596,1.886630892753601,-0.2585737705230713,-9.806650161743164,2100.701,-0.001065264455974102,-0.003195793367922306,-0.001065264455974102,2100.893,157.0,-594.0,388.0
211,2110.5860000000002,1.8962076902389526,-0.2777273952960968,-9.787496566772461,2110.6910000000003,-0.0,-0.002130528911948204,-0.001065264455974102,2110.884,139.0,-570.0,356.0
212,2120.479,1.9345149993896484,-0.2106897532939911,-9.787496566772461,2120.4109999999996,0.001065264455974102,-0.001065264455974102,-0.002130528911948204,2120.806,139.0,-570.0,362.0
213,2130.347,1.9057846069335938,-0.24899697303771973,-9.816226959228516,2130.308,-0.001065264455974102,0.0,-0.002130528911948204,2130.904,139.0,-570.0,369.0
214,2140.235,1.886630892753601,-0.2298433631658554,-9.816226959228516,2140.2839999999997,-0.002130528911948204,0.001065264455974102,-0.002130528911948204,2140.685,139.0,-588.0,369.0
215,2150.148,1.944091796875,-0.23942017555236816,-9.825803756713867,2150.393,-0.0,0.002130528911948204,-0.001065264455974102,2150.591,151.0,-588.0,362.0
216,2159.833,1.9345149993896484,-0.2298433631658554,-9.739612579345703,2160.38,-0.0,0.002130528911948204,0.0,2160.578,145.0,-594.0,375.0
217,2169.849,1.8962076902389526,-0.28730419278144836,-9.835380554199219,2170.1839999999997,-0.001065264455974102,-0.001065264455974102,0.0,2170.484,139.0,-588.0,362.0
218,2179.7360000000003,1.9345149993896484,-0.23942017555236816,-9.797073364257812,2180.067,-0.002130528911948204,-0.001065264455974102,0.0,2180.567,145.0,-582.0,362.0
219,2189.623,1.867477297782898,-0.2298433631658554,-9.816226959228516,2190.36,-0.001065264455974102,-0.001065264455974102,-0.001065264455974102,2190.3579999999997,151.0,-576.0,362.0
220,2199.284,1.9153614044189453,-0.23942017555236816,-9.768342971801758,2200.2619999999997,-0.002130528911948204,-0.002130528911948204,0.0,2200.46,151.0,-582.0,395.0
221,2209.168,1.886630892753601,-0.2298433631658554,-9.787496566772461,2210.404,-0.001065264455974102,-0.003195793367922306,0.0,2210.6020000000003,133.0,-564.0,369.0
222,2219.057,1.9153614044189453,-0.3064578175544739,-9.816226959228516,2220.5409999999997,-0.0,-0.002130528911948204,-0.001065264455974102,2220.538,145.0,-576.0,369.0
223,2228.911,1.9057846069335938,-0.24899697303771973,-9.797073364257812,2230.343,-0.0,-0.002130528911948204,-0.002130528911948204,2230.3419999999996,157.0,-570.0,382.0
224,2238.9990000000003,1.9249382019042969,-0.26815059781074524,-9.816226959228516,2240.621,-0.001065264455974102,-0.002130528911948204,-0.002130528911948204,2240.635,157.0,-570.0,369.0
225,2250.623,1.9057846069335938,-0.26815059781074524,-9.787496566772461,2250.665,-0.001065264455974102,-0.002130528911948204,-0.001065264455974102,2250.857,163.0,-570.0,362.0
226,2260.6259999999997,1.9153614044189453,-0.26815059781074524,-9.806650161743164,2260.7200000000003,-0.002130528911948204,-0.002130528911948204,-0.001065264455974102,2260.912,151.0,-599.0,356.0
227,2270.6400000000003,1.9249382019042969,-0.2298433631658554,-9.854534149169922,2270.7329999999997,-0.001065264455974102,-0.002130528911948204,-0.001065264455974102,2270.925,151.0,-564.0,369.0
228,2280.519,1.9345149993896484,-0.2777273952960968,-9.806650161743164,2280.463,-0.001065264455974102,-0.001065264455974102,-0.001065264455974102,2280.855,157.0,-588.0,388.0
229,2290.387,1.9057846069335938,-0.2298433631658554,-9.806650161743164,2290.438,-0.001065264455974102,-0.002130528911948204,-0.001065264455974102,2291.035,163.0,-576.0,375.0
230,2300.2630000000004,1.9153614044189453,-0.2298433631658554,-9.787496566772461,2300.2250000000004,-0.0,-0.001065264455974102,-0.001065264455974102,2300.817,151.0,-594.0,356.0
231,2310.176,1.9345149993896484,-0.22026655077934265,-9.816226959228516,2310.411,-0.0,0.0,-0.001065264455974102,2310.41,151.0,-588.0,369.0
232,2319.89,1.9249382019042969,-0.2298433631658554,-9.806650161743164,2320.4410000000003,-0.0,-0.002130528911948204,-0.001065264455974102,2320.639,157.0,-588.0,375.0
233,2329.874,1.8962076902389526,-0.2298433631658554,-9.816226959228516,2330.3669999999997,-0.0,-0.002130528911948204,-0.001065264455974102,2330.564,157.0,-582.0,375.0
234,2339.7610000000004,1.8962076902389526,-0.2585737705230713,-9.806650161743164,2340.255,-0.001065264455974102,-0.001065264455974102,-0.002130528911948204,2340.456,151.0,-582.0,388.0
235,2349.6510000000003,1.886630892753601,-0.2585737705230713,-9.806650161743164,2350.002,-0.001065264455974102,-0.001065264455974102,-0.002130528911948204,2350.1020000000003,157.0,-570.0,375.0
236,2359.508,1.9249382019042969,-0.2298433631658554,-9.816226959228516,2360.5040000000004,-0.001065264455974102,-0.001065264455974102,-0.002130528911948204,2360.3019999999997,163.0,-588.0,369.0
237,2369.192,1.9345149993896484,-0.2585737705230713,-9.816226959228516,2370.386,-0.002130528911948204,-0.002130528911948204,-0.001065264455974102,2370.783,163.0,-576.0,349.0
238,2379.0789999999997,1.9919757843017578,-0.26815059781074524,-9.825803756713867,2380.56,-0.003195793367922306,-0.001065264455974102,-0.001065264455974102,2380.5570000000002,151.0,-582.0,369.0
239,2388.964,1.867477297782898,-0.3064578175544739,-9.84495735168457,2390.3650000000002,-0.002130528911948204,-0.001065264455974102,0.0,2390.363,157.0,-570.0,356.0
240,2399.025,1.8962076902389526,-0.26815059781074524,-9.787496566772461,2400.659,-0.0,-0.001065264455974102,0.001065264455974102,2400.473,145.0,-582.0,382.0
241,2410.648,1.9153614044189453,-0.23942017555236816,-9.816226959228516,2410.701,-0.001065264455974102,-0.001065264455974102,0.0,2410.693,163.0,-570.0,369.0
242,2420.6470000000004,1.9057846069335938,-0.24899697303771973,-9.77791976928711,2420.749,-0.002130528911948204,-0.001065264455974102,-0.001065264455974102,2420.9429999999998,139.0,-553.0,375.0
243,2430.662,1.9249382019042969,-0.23942017555236816,-9.84495735168457,2430.758,-0.001065264455974102,0.0,-0.002130528911948204,2430.9500000000003,151.0,-594.0,369.0
244,2440.541,1.8962076902389526,-0.2585737705230713,-9.787496566772461,2440.69,-0.0,0.0,-0.002130528911948204,2441.081,145.0,-594.0,369.0
245,2450.415,1.9153614044189453,-0.24899697303771973,-9.758766174316406,2450.5789999999997,-0.0,-0.001065264455974102,-0.001065264455974102,2450.971,157.0,-576.0,369.0
246,2460.297,1.9153614044189453,-0.24899697303771973,-9.825803756713867,2460.542,0.001065264455974102,-0.002130528911948204,-0.002130528911948204,2460.74,157.0,-576.0,369.0
247,2470.185,1.9249382019042969,-0.2585737705230713,-9.787496566772461,2470.437,-0.001065264455974102,-0.002130528911948204,-0.002130528911948204,2470.635,151.0,-588.0,356.0
248,2480.1099999999997,1.9249382019042969,-0.181959331035614,-9.816226959228516,2480.4629999999997,-0.001065264455974102,-0.003195793367922306,-0.001065264455974102,2480.4610000000002,145.0,-582.0,375.0
249,2489.7309999999998,1.944091796875,-0.2585737705230713,-9.797073364257812,2490.6609999999996,-0.001065264455974102,-0.002130528911948204,-0.001065264455974102,2490.659,151.0,-570.0,382.0
250,2499.6130000000003,1.9057846069335938,-0.26815059781074524,-9.806650161743164,2500.504,-0.001065264455974102,-0.003195793367922306,-0.001065264455974102,2500.5060000000003,157.0,-576.0,395.0
251,2509.473,1.9057846069335938,-0.24899697303771973,-9.797073364257812,2510.234,-0.001065264455974102,-0.003195793367922306,-0.001065264455974102,2510.334,151.0,-576.0,362.0
252,2519.3599999999997,1.9536685943603516,-0.23942017555236816,-9.816226959228516,2520.339,-0.002130528911948204,-0.003195793367922306,-0.001065264455974102,2520.538,145.0,-570.0,356.0
253,2529.2439999999997,1.886630892753601,-0.23942017555236816,-9.84495735168457,2530.431,-0.002130528911948204,-0.002130528911948204,-0.001065264455974102,2530.8320000000003,151.0,-582.0,369.0
254,2539.131,1.8962076902389526,-0.2777273952960968,-9.77791976928711,2540.614,-0.002130528911948204,-0.001065264455974102,-0.001065264455974102,2540.612,163.0,-570.0,382.0
255,2548.654,1.944091796875,-0.2585737705230713,-9.883264541625977,2550.492,-0.003195793367922306,-0.001065264455974102,-0.001065264455974102,2550.49,145.0,-576.0,356.0
256,2560.5,1.867477297782898,-0.3064578175544739,-9.835380554199219,2560.8849999999998,-0.001065264455974102,0.0,0.0,2560.5,151.0,-576.0,356.0
257,2570.687,1.8579005002975464,-0.23942017555236816,-9.787496566772461,2570.755,-0.0,-0.001065264455974102,0.0,2570.9469999999997,163.0,-588.0,362.0
258,2580.696,1.9345149993896484,-0.20111294090747833,-9.873687744140625,2580.801,-0.0,-0.001065264455974102,0.0,2580.993,145.0,-570.0,369.0
259,2590.683,1.8962076902389526,-0.2777273952960968,-9.816226959228516,2590.784,-0.001065264455974102,-0.001065264455974102,0.0,2590.979,157.0,-582.0,388.0
260,2600.636,1.886630892753601,-0.26815059781074524,-9.77791976928711,2600.7259999999997,-0.001065264455974102,-0.001065264455974102,-0.001065264455974102,2600.9190000000003,139.0,-576.0,369.0
261,2610.489,1.9345149993896484,-0.26815059781074524,-9.873687744140625,2610.436,-0.001065264455974102,-0.001065264455974102,-0.001065264455974102,2610.8289999999997,133.0,-570.0,369.0
262,2620.3500000000004,1.8962076902389526,-0.2585737705230713,-9.787496566772461,2620.407,-0.002130528911948204,-0.002130528911948204,0.0,2621.004,139.0,-582.0,382.0
263,2630.241,1.9057846069335938,-0.19153612852096558,-9.864110946655273,2630.486,-0.001065264455974102,-0.003195793367922306,0.0,2630.687,163.0,-582.0,375.0
264,2639.962,1.9057846069335938,-0.2585737705230713,-9.825803756713867,2640.3089999999997,-0.0,-0.002130528911948204,0.0,2640.707,163.0,-582.0,382.0
265,2649.796,1.9153614044189453,-0.2777273952960968,-9.758766174316406,2650.47,-0.0,-0.002130528911948204,0.0,2650.668,139.0,-588.0,382.0
266,2659.865,1.886630892753601,-0.22026655077934265,-9.806650161743164,2660.205,-0.001065264455974102,-0.002130528911948204,-0.001065264455974102,2660.505,145.0,-564.0,388.0
267,2669.722,1.9345149993896484,-0.2968810200691223,-9.768342971801758,2670.2200000000003,-0.002130528911948204,-0.002130528911948204,-0.001065264455974102,2670.52,145.0,-588.0,362.0
268,2679.609,1.8962076902389526,-0.2777273952960968,-9.768342971801758,2680.4790000000003,-0.001065264455974102,-0.002130528911948204,-0.001065264455974102,2680.48,163.0,-570.0,375.0
269,2689.2960000000003,1.9153614044189453,-0.23942017555236816,-9.835380554199219,2690.484,-0.0,-0.001065264455974102,-0.002130528911948204,2690.682,151.0,-564.0,362.0
270,2699.387,1.9249382019042969,-0.23942017555236816,-9.787496566772461,2700.473,0.001065264455974102,0.0,-0.001065264455974102,2700.471,145.0,-588.0,382.0
271,2709.242,1.8962076902389526,-0.26815059781074524,-9.787496566772461,2710.6189999999997,0.001065264455974102,0.001065264455974102,-0.001065264455974102,2710.629,151.0,-588.0,375.0
272,2718.9320000000002,1.9345149993896484,-0.24899697303771973,-9.835380554199219,2720.9539999999997,0.001065264455974102,0.001065264455974102,-0.001065264455974102,2720.573,163.0,-605.0,369.0
273,2730.562,1.9153614044189453,-0.22026655077934265,-9.816226959228516,2730.944,0.001065264455974102,0.001065264455974102,0.0,2730.862,168.0,-582.0,375.0
274,2740.725,1.9153614044189453,-0.2298433631658554,-9.835380554199219,2740.823,-0.0,-0.001065264455974102,0.0,2741.018,145.0,-582.0,356.0
275,2750.735,1.9536685943603516,-0.23942017555236816,-9.816226959228516,2750.835,-0.001065264455974102,-0.002130528911948204,-0.001065264455974102,2751.027,157.0,-599.0,362.0
276,2760.645,1.8962076902389526,-0.23942017555236816,-9.77791976928711,2760.878,-0.002130528911948204,-0.003195793367922306,-0.001065264455974102,2760.876,163.0,-576.0,369.0
277,2770.4970000000003,1.9153614044189453,-0.2585737705230713,-9.758766174316406,2770.664,-0.002130528911948204,-0.004261057823896408,-0.002130528911948204,2770.857,139.0,-582.0,362.0
278,2780.3810000000003,1.9345149993896484,-0.23942017555236816,-9.758766174316406,2780.536,-0.002130528911948204,-0.004261057823896408,-0.001065264455974102,2780.931,157.0,-576.0,369.0
279,2790.316,1.8770540952682495,-0.2585737705230713,-9.816226959228516,2790.538,-0.001065264455974102,-0.003195793367922306,-0.001065264455974102,2790.736,151.0,-588.0,369.0
280,2800.132,1.9057846069335938,-0.2585737705230713,-9.816226959228516,2800.464,-0.001065264455974102,-0.002130528911948204,-0.001065264455974102,2800.663,151.0,-588.0,375.0
281,2809.819,1.9249382019042969,-0.19153612852096558,-9.825803756713867,2810.4900000000002,-0.001065264455974102,-0.001065264455974102,-0.001065264455974102,2810.488,157.0,-588.0,388.0
282,2819.689,1.8770540952682495,-0.2298433631658554,-9.797073364257812,2820.5809999999997,-0.0,0.0,-0.001065264455974102,2820.5789999999997,151.0,-599.0,382.0
283,2829.775,1.8962076902389526,-0.24899697303771973,-9.768342971801758,2830.564,-0.001065264455974102,0.0,0.0,2830.3650000000002,151.0,-582.0,375.0
284,2839.6639999999998,1.9249382019042969,-0.26815059781074524,-9.797073364257812,2840.473,-0.0,0.001065264455974102,0.0,2840.475,157.0,-576.0,343.0
285,2849.3210000000004,1.886630892753601,-0.23942017555236816,-9.816226959228516,2850.52,-0.001065264455974102,-0.001065264455974102,-0.001065264455974102,2850.518,163.0,-588.0,343.0
286,2859.407,1.9249382019042969,-0.26815059781074524,-9.816226959228516,2860.542,-0.001065264455974102,-0.002130528911948204,-0.001065264455974102,2860.54,168.0,-570.0,375.0
287,2869.296,1.944091796875,-0.22026655077934265,-9.797073364257812,2870.645,-0.002130528911948204,-0.003195793367922306,-0.001065264455974102,2870.643,139.0,-576.0,375.0
288,2879.188,1.9153614044189453,-0.23942017555236816,-9.825803756713867,2880.448,-0.001065264455974102,-0.002130528911948204,-0.001065264455974102,2880.649,151.0,-570.0,349.0
289,2890.551,1.9345149993896484,-0.2777273952960968,-9.797073364257812,2890.733,-0.0,-0.002130528911948204,0.0,2890.551,151.0,-588.0,375.0
290,2900.739,1.886630892753601,-0.26815059781074524,-9.787496566772461,2900.853,-0.0,-0.001065264455974102,0.0,2900.846,151.0,-570.0,369.0
291,2910.753,1.9057846069335938,-0.24899697303771973,-9.797073364257812,2910.8610000000003,0.001065264455974102,0.0,-0.001065264455974102,2911.058,157.0,-564.0,375.0
292,2920.673,1.9536685943603516,-0.2298433631658554,-9.816226959228516,2920.818,-0.001065264455974102,-0.001065264455974102,-0.002130528911948204,2921.011,139.0,-599.0,375.0
293,2930.552,1.9345149993896484,-0.24899697303771973,-9.825803756713867,2930.7059999999997,-0.001065264455974102,-0.002130528911948204,-0.002130528911948204,2931.0969999999998,157.0,-576.0,362.0
294,2940.434,1.8962076902389526,-0.22026655077934265,-9.758766174316406,2940.674,-0.001065264455974102,-0.003195793367922306,-0.001065264455974102,2940.8720000000003,151.0,-588.0,375.0
295,2950.307,1.8962076902389526,-0.2777273952960968,-9.77791976928711,2950.56,-0.002130528911948204,-0.002130528911948204,-0.001065264455974102,2950.758,151.0,-576.0,363.0
296,2960.239,1.9057846069335938,-0.24899697303771973,-9.768342971801758,2960.587,-0.001065264455974102,-0.001065264455974102,-0.001065264455974102,2960.585,163.0,-588.0,375.0
297,2969.929,1.9153614044189453,-0.23942017555236816,-9.825803756713867,2970.4739999999997,-0.001065264455974102,-0.002130528911948204,-0.002130528911948204,2970.8709999999996,151.0,-570.0,369.0
298,2979.9410000000003,1.9249382019042969,-0.2585737705230713,-9.816226959228516,2980.272,-0.001065264455974102,-0.001065264455974102,-0.001065264455974102,2980.572,157.0,-576.0,369.0
299,2989.797,1.9249382019042969,-0.2585737705230713,-9.854534149169922,2990.583,-0.001065264455974102,0.0,-0.002130528911948204,2990.582,151.0,-576.0,369.0
300,2999.688,1.8962076902389526,-0.22026655077934265,-9.873687744140625,3000.5299999999997,-0.0,0.0,-0.002130528911948204,3000.7290000000003,157.0,-588.0,362.0
301,3009.372,1.8962076902389526,-0.26815059781074524,-9.806650161743164,3010.547,-0.0,0.0,-0.001065264455974102,3010.748,151.0,-570.0,369.0
302,3019.2290000000003,1.8962076902389526,-0.26815059781074524,-9.797073364257812,3020.692,-0.001065264455974102,0.001065264455974102,-0.001065264455974102,3020.69,151.0,-582.0,369.0
303,3029.118,1.886630892753601,-0.2298433631658554,-9.797073364257812,3030.4809999999998,-0.002130528911948204,0.001065264455974102,-0.001065264455974102,3030.679,145.0,-570.0,343.0
304,3039.2019999999998,1.8770540952682495,-0.22026655077934265,-9.816226959228516,3040.824,-0.001065264455974102,-0.001065264455974102,-0.001065264455974102,3040.5389999999998,157.0,-576.0,362.0
305,3050.7909999999997,1.9345149993896484,-0.2777273952960968,-9.787496566772461,3050.822,-0.002130528911948204,-0.002130528911948204,-0.001065264455974102,3051.031,139.0,-570.0,388.0
306,3060.763,1.886630892753601,-0.23942017555236816,-9.816226959228516,3060.868,-0.002130528911948204,-0.004261057823896408,-0.001065264455974102,3061.061,145.0,-576.0,375.0
307,3070.7870000000003,1.9345149993896484,-0.26815059781074524,-9.835380554199219,3070.884,-0.002130528911948204,-0.003195793367922306,0.0,3071.079,151.0,-582.0,362.0
308,3080.757,1.8770540952682495,-0.23942017555236816,-9.84495735168457,3080.94,-0.001065264455974102,-0.003195793367922306,0.0,3081.141,168.0,-576.0,375.0
309,3090.5710000000004,1.9345149993896484,-0.23942017555236816,-9.825803756713867,3090.531,-0.0,-0.004261057823896408,-0.001065264455974102,3091.123,151.0,-570.0,362.0
310,3100.454,1.9249382019042969,-0.23942017555236816,-9.797073364257812,3100.4139999999998,-0.0,-0.004261057823896408,-0.001065264455974102,3101.006,163.0,-582.0,362.0
311,3110.348,1.8962076902389526,-0.2777273952960968,-9.787496566772461,3110.602,-0.001065264455974102,-0.003195793367922306,-0.001065264455974102,3110.7999999999997,145.0,-588.0,356.0
312,3120.0589999999997,1.9632453918457031,-0.2777273952960968,-9.787496566772461,3120.407,-0.001065264455974102,0.0,0.0,3120.805,157.0,-576.0,375.0
313,3130.093,1.9057846069335938,-0.2106897532939911,-9.825803756713867,3130.5679999999998,-0.0,0.0,-0.001065264455974102,3130.7670000000003,151.0,-564.0,382.0
314,3139.967,1.9536685943603516,-0.24899697303771973,-9.816226959228516,3140.459,-0.0,0.001065264455974102,-0.001065264455974102,3140.657,157.0,-570.0,369.0
315,3149.851,1.8770540952682495,-0.2298433631658554,-9.816226959228516,3150.2129999999997,-0.0,0.001065264455974102,-0.002130528911948204,3150.513,151.0,-582.0,369.0
316,3159.707,1.8962076902389526,-0.2777273952960968,-9.84495735168457,3160.586,-0.0,0.0,-0.001065264455974102,3160.588,151.0,-570.0,369.0
317,3169.395,1.9057846069335938,-0.2777273952960968,-9.883264541625977,3170.5950000000003,-0.0,-0.001065264455974102,-0.001065264455974102,3170.5930000000003,151.0,-588.0,375.0
318,3179.2850000000003,1.886630892753601,-0.22026655077934265,-9.77791976928711,3180.765,-0.002130528911948204,-0.002130528911948204,-0.001065264455974102,3180.764,151.0,-576.0,362.0
319,3189.174,1.9249382019042969,-0.22026655077934265,-9.854534149169922,3190.484,-0.002130528911948204,-0.003195793367922306,-0.001065264455974102,3190.6859999999997,163.0,-570.0,369.0
320,3199.0280000000002,1.9153614044189453,-0.22026655077934265,-9.797073364257812,3201.0499999999997,-0.003195793367922306,-0.003195793367922306,-0.001065264455974102,3200.6679999999997,151.0,-576.0,356.0
321,3210.643,1.9249382019042969,-0.26815059781074524,-9.825803756713867,3211.026,-0.003195793367922306,-0.002130528911948204,0.0,3210.9429999999998,157.0,-588.0,362.0
322,3220.822,1.9345149993896484,-0.23942017555236816,-9.825803756713867,3220.9249999999997,-0.002130528911948204,-0.001065264455974102,0.0,3221.117,157.0,-588.0,375.0
323,3230.794,1.9057846069335938,-0.2777273952960968,-9.758766174316406,3230.899,-0.001065264455974102,-0.001065264455974102,-0.001065264455974102,3231.0919999999996,157.0,-576.0,362.0
324,3240.7870000000003,1.9249382019042969,-0.24899697303771973,-9.768342971801758,3240.687,-0.0,-0.001065264455974102,-0.001065264455974102,3241.0800000000004,157.0,-582.0,382.0
325,3250.578,1.8962076902389526,-0.2777273952960968,-9.797073364257812,3250.7039999999997,-0.0,-0.002130528911948204,-0.001065264455974102,3251.099,139.0,-564.0,369.0
326,3260.5029999999997,1.9345149993896484,-0.26815059781074524,-9.787496566772461,3260.442,-0.0,-0.002130528911948204,-0.001065264455974102,3260.838,157.0,-576.0,349.0
327,3270.3700000000003,1.867477297782898,-0.2585737705230713,-9.787496566772461,3270.623,-0.001065264455974102,-0.002130528911948204,-0.001065264455974102,3270.825,133.0,-576.0,369.0
328,3280.2400000000002,1.944091796875,-0.28730419278144836,-9.797073364257812,3280.564,-0.001065264455974102,-0.001065264455974102,-0.001065264455974102,3280.762,157.0,-588.0,382.0
329,3290.0,1.9057846069335938,-0.20111294090747833,-9.825803756713867,3290.547,-0.001065264455974102,-0.002130528911948204,-0.001065264455974102,3290.745,163.0,-582.0,369.0
330,3299.986,1.9057846069335938,-0.23942017555236816,-9.806650161743164,3300.476,-0.002130528911948204,-0.001065264455974102,-0.001065264455974102,3300.6769999999997,133.0,-588.0,362.0
331,3309.876,1.9057846069335938,-0.24899697303771973,-9.77791976928711,3310.233,-0.002130528911948204,-0.001065264455974102,-0.001065264455974102,3310.333,168.0,-582.0,382.0
332,3319.457,1.9345149993896484,-0.23942017555236816,-9.787496566772461,3320.547,-0.001065264455974102,0.0,-0.001065264455974102,3320.545,145.0,-594.0,356.0
333,3329.453,1.9345149993896484,-0.22026655077934265,-9.797073364257812,3330.613,-0.002130528911948204,0.001065264455974102,-0.001065264455974102,3330.811,145.0,-582.0,369.0
334,3339.306,1.8962076902389526,-0.23942017555236816,-9.873687744140625,3340.7870000000003,-0.001065264455974102,0.0,-0.001065264455974102,3340.785,163.0,-594.0,349.0
335,3349.395,1.9823989868164062,-0.2106897532939911,-9.806650161743164,3350.762,-0.001065264455974102,-0.001065264455974102,-0.002130528911948204,3350.76,157.0,-582.0,375.0
336,3359.279,1.886630892753601,-0.2777273952960968,-9.768342971801758,3360.525,-0.002130528911948204,-0.003195793367922306,-0.001065264455974102,3360.723,157.0,-594.0,382.0
337,3370.644,1.886630892753601,-0.3064578175544739,-9.758766174316406,3370.829,-0.002130528911948204,-0.003195793367922306,-0.001065264455974102,3370.644,151.0,-588.0,369.0
338,3380.846,1.9249382019042969,-0.24899697303771973,-9.787496566772461,3380.941,-0.001065264455974102,-0.002130528911948204,0.0,3380.933,157.0,-599.0,369.0
339,3390.859,1.8770540952682495,-0.26815059781074524,-9.77791976928711,3390.953,-0.0,-0.001065264455974102,0.0,3391.146,151.0,-588.0,369.0
340,3400.766,1.9057846069335938,-0.26815059781074524,-9.806650161743164,3400.714,-0.0,-0.001065264455974102,-0.001065264455974102,3401.107,157.0,-582.0,356.0
341,3410.641,1.9632453918457031,-0.2585737705230713,-9.806650161743164,3410.602,0.001065264455974102,-0.001065264455974102,-0.001065264455974102,3411.1929999999998,157.0,-576.0,375.0
342,3420.524,1.9057846069335938,-0.2585737705230713,-9.854534149169922,3420.487,0.001065264455974102,-0.001065264455974102,-0.001065264455974102,3421.078,151.0,-570.0,369.0
343,3430.424,1.9536685943603516,-0.2298433631658554,-9.816226959228516,3430.6800000000003,-0.001065264455974102,-0.001065264455974102,0.0,3430.8779999999997,133.0,-576.0,382.0
344,3440.2560000000003,1.9153614044189453,-0.24899697303771973,-9.825803756713867,3440.583,-0.002130528911948204,-0.001065264455974102,-0.001065264455974102,3440.781,145.0,-570.0,369.0
345,3450.2290000000003,1.886630892753601,-0.23942017555236816,-9.864110946655273,3450.58,-0.002130528911948204,-0.001065264455974102,-0.001065264455974102,3450.7819999999997,157.0,-588.0,356.0
346,3459.8399999999997,1.9153614044189453,-0.2585737705230713,-9.835380554199219,3460.734,-0.002130528911948204,-0.001065264455974102,-0.001065264455974102,3460.74,151.0,-582.0,375.0
347,3469.7290000000003,1.9057846069335938,-0.23942017555236816,-9.84495735168457,3470.285,-0.003195793367922306,-0.002130528911948204,-0.001065264455974102,3470.585,151.0,-594.0,349.0
348,3479.585,1.9345149993896484,-0.2585737705230713,-9.797073364257812,3480.6530000000002,-0.003195793367922306,-0.001065264455974102,0.0,3480.654,145.0,-582.0,356.0
349,3489.672,1.9249382019042969,-0.22026655077934265,-9.816226959228516,3490.714,-0.002130528911948204,-0.001065264455974102,0.0,3490.912,168.0,-588.0,369.0
350,3499.558,1.886630892753601,-0.2585737705230713,-9.787496566772461,3500.627,-0.002130528911948204,-0.001065264455974102,0.0,3501.0240000000003,145.0,-582.0,349.0
351,3509.446,1.9153614044189453,-0.23942017555236816,-9.749189376831055,3510.573,-0.0,-0.001065264455974102,0.0,3510.771,163.0,-564.0,375.0
352,3519.2999999999997,1.9249382019042969,-0.24899697303771973,-9.854534149169922,3520.947,-0.0,0.0,0.0,3520.661,151.0,-576.0,375.0
353,3530.6989999999996,1.9057846069335938,-0.2298433631658554,-9.883264541625977,3531.084,-0.001065264455974102,-0.001065264455974102,-0.001065264455974102,3530.999,139.0,-582.0,369.0
354,3540.878,1.8962076902389526,-0.26815059781074524,-9.806650161743164,3540.967,-0.002130528911948204,-0.001065264455974102,-0.002130528911948204,3541.165,157.0,-582.0,369.0
355,3550.874,1.9249382019042969,-0.2298433631658554,-9.77791976928711,3550.978,-0.001065264455974102,-0.002130528911948204,0.0,3551.175,151.0,-582.0,388.0
356,3560.86,1.9057846069335938,-0.2777273952960968,-9.77791976928711,3560.956,-0.001065264455974102,-0.002130528911948204,0.0,3561.149,151.0,-570.0,363.0
357,3570.743,1.9153614044189453,-0.24899697303771973,-9.816226959228516,3570.778,-0.001065264455974102,-0.002130528911948204,0.0,3571.177,157.0,-565.0,369.0
358,3580.58,1.9153614044189453,-0.23942017555236816,-9.787496566772461,3580.638,-0.001065264455974102,-0.002130528911948204,0.0,3581.235,157.0,-588.0,362.0
359,3590.4519999999998,1.9057846069335938,-0.22026655077934265,-9.816226959228516,3590.613,-0.0,-0.001065264455974102,-0.001065264455974102,3590.805,157.0,-594.0,382.0
360,3600.3120000000004,1.944091796875,-0.24899697303771973,-9.806650161743164,3600.635,-0.001065264455974102,-0.001065264455974102,-0.001065264455974102,3600.8360000000002,168.0,-582.0,363.0
361,3610.081,1.9249382019042969,-0.2777273952960968,-9.825803756713867,3610.638,-0.001065264455974102,0.0,0.0,3610.84,139.0,-576.0,388.0
362,3620.0950000000003,1.9057846069335938,-0.23942017555236816,-9.787496566772461,3620.597,-0.001065264455974102,0.0,0.0,3620.796,163.0,-582.0,363.0
363,3629.75,1.8770540952682495,-0.23942017555236816,-9.749189376831055,3630.3559999999998,-0.002130528911948204,-0.001065264455974102,0.0,3630.656,151.0,-588.0,362.0
364,3639.637,1.9057846069335938,-0.23942017555236816,-9.77791976928711,3640.629,-0.003195793367922306,-0.001065264455974102,-0.001065264455974102,3640.831,151.0,-582.0,369.0
365,3649.723,1.9536685943603516,-0.2585737705230713,-9.825803756713867,3650.726,-0.002130528911948204,0.0,-0.001065264455974102,3650.7239999999997,145.0,-576.0,369.0
366,3659.613,1.8962076902389526,-0.23942017555236816,-9.883264541625977,3660.812,-0.002130528911948204,-0.001065264455974102,-0.001065264455974102,3660.81,151.0,-576.0,363.0
367,3669.466,1.9345149993896484,-0.2298433631658554,-9.768342971801758,3670.608,-0.001065264455974102,-0.003195793367922306,-0.002130528911948204,3670.6059999999998,157.0,-570.0,375.0
368,3679.355,1.8770540952682495,-0.2585737705230713,-9.806650161743164,3680.6549999999997,-0.001065264455974102,-0.004261057823896408,-0.002130528911948204,3680.653,151.0,-582.0,382.0
369,3690.726,1.9057846069335938,-0.2298433631658554,-9.806650161743164,3691.112,-0.001065264455974102,-0.004261057823896408,-0.001065264455974102,3690.726,157.0,-588.0,369.0
370,3700.891,1.9153614044189453,-0.2298433631658554,-9.77791976928711,3700.984,-0.001065264455974102,-0.003195793367922306,-0.001065264455974102,3701.176,151.0,-576.0,363.0
371,3710.899,1.9345149993896484,-0.23942017555236816,-9.84495735168457,3711.001,-0.001065264455974102,-0.003195793367922306,0.0,3711.1960000000004,145.0,-559.0,369.0
372,3720.911,1.9345149993896484,-0.2298433631658554,-9.787496566772461,3721.007,-0.002130528911948204,-0.003195793367922306,0.0,3721.2000000000003,145.0,-588.0,375.0
373,3730.764,1.8962076902389526,-0.23942017555236816,-9.825803756713867,3731.006,-0.002130528911948204,-0.002130528911948204,-0.001065264455974102,3731.205,157.0,-576.0,369.0
374,3740.603,1.886630892753601,-0.2298433631658554,-9.816226959228516,3740.768,-0.002130528911948204,-0.002130528911948204,-0.001065264455974102,3740.964,163.0,-594.0,388.0
375,3750.503,1.8962076902389526,-0.23942017555236816,-9.77791976928711,3750.7549999999997,-0.003195793367922306,-0.002130528911948204,-0.001065264455974102,3750.956,157.0,-599.0,369.0
376,3760.3650000000002,1.944091796875,-0.24899697303771973,-9.797073364257812,3760.686,-0.003195793367922306,-0.002130528911948204,-0.002130528911948204,3760.884,151.0,-582.0,350.0
377,3770.3289999999997,1.9345149993896484,-0.2585737705230713,-9.787496566772461,3770.68,-0.002130528911948204,-0.001065264455974102,-0.002130528911948204,3770.878,151.0,-582.0,375.0
378,3779.9179999999997,1.9153614044189453,-0.19153612852096558,-9.854534149169922,3780.442,-0.001065264455974102,0.0,-0.001065264455974102,3780.742,168.0,-588.0,369.0
379,3789.805,1.8770540952682495,-0.28730419278144836,-9.797073364257812,3790.345,-0.001065264455974102,0.001065264455974102,-0.001065264455974102,3790.645,168.0,-570.0,363.0
380,3799.6910000000003,1.8770540952682495,-0.2585737705230713,-9.816226959228516,3800.665,-0.001065264455974102,0.001065264455974102,-0.001065264455974102,3800.666,163.0,-576.0,375.0
381,3809.75,1.886630892753601,-0.26815059781074524,-9.797073364257812,3810.7419999999997,-0.001065264455974102,0.003195793367922306,0.0,3810.7400000000002,145.0,-570.0,369.0
382,3819.438,1.8962076902389526,-0.2585737705230713,-9.797073364257812,3820.898,-0.0,0.003195793367922306,-0.001065264455974102,3820.9,163.0,-588.0,375.0
383,3828.989,1.9153614044189453,-0.2106897532939911,-9.797073364257812,3830.723,-0.0,0.002130528911948204,-0.001065264455974102,3830.7250000000004,128.0,-594.0,369.0
384,3839.212,1.9249382019042969,-0.2298433631658554,-9.758766174316406,3840.6479999999997,-0.001065264455974102,0.001065264455974102,-0.001065264455974102,3840.846,157.0,-576.0,363.0
385,3850.734,1.8770540952682495,-0.2777273952960968,-9.77791976928711,3850.92,-0.001065264455974102,0.0,-0.001065264455974102,3850.734,163.0,-570.0,369.0
386,3860.938,1.8962076902389526,-0.24899697303771973,-9.816226959228516,3861.0370000000003,-0.001065264455974102,-0.002130528911948204,-0.001065264455974102,3861.031,145.0,-565.0,349.0
387,3870.9519999999998,1.9249382019042969,-0.26815059781074524,-9.77791976928711,3871.051,-0.002130528911948204,-0.004261057823896408,0.0,3871.245,145.0,-588.0,369.0
388,3880.924,1.8770540952682495,-0.2298433631658554,-9.873687744140625,3881.03,-0.002130528911948204,-0.004261057823896408,-0.001065264455974102,3881.222,163.0,-582.0,363.0
389,3890.7889999999998,1.944091796875,-0.2106897532939911,-9.864110946655273,3890.936,-0.002130528911948204,-0.004261057823896408,-0.001065264455974102,3891.1319999999996,151.0,-582.0,363.0
390,3900.665,1.9345149993896484,-0.2585737705230713,-9.84495735168457,3900.823,-0.002130528911948204,-0.00532632227987051,-0.001065264455974102,3901.218,151.0,-565.0,349.0
391,3910.561,1.9249382019042969,-0.24899697303771973,-9.77791976928711,3910.8070000000002,-0.002130528911948204,-0.007456851191818714,-0.001065264455974102,3911.009,163.0,-576.0,356.0
392,3920.3869999999997,1.9153614044189453,-0.2585737705230713,-9.806650161743164,3920.71,-0.001065264455974102,-0.007456851191818714,-0.001065264455974102,3920.909,174.0,-576.0,382.0
393,3930.153,1.9057846069335938,-0.2298433631658554,-9.854534149169922,3930.7059999999997,-0.001065264455974102,-0.004261057823896408,0.0,3930.904,168.0,-576.0,388.0
394,3940.17,1.886630892753601,-0.23942017555236816,-9.77791976928711,3940.506,-0.0,-0.001065264455974102,-0.001065264455974102,3940.8059999999996,163.0,-582.0,375.0
395,3950.0570000000002,1.8962076902389526,-0.23942017555236816,-9.758766174316406,3950.411,-0.0,-0.001065264455974102,0.0,3950.7110000000002,151.0,-559.0,375.0
396,3959.9139999999998,1.9057846069335938,-0.2777273952960968,-9.749189376831055,3960.6639999999998,-0.0,0.0,0.0,3960.6620000000003,139.0,-570.0,363.0
397,3969.605,1.9345149993896484,-0.23942017555236816,-9.835380554199219,3970.589,0.001065264455974102,0.001065264455974102,-0.001065264455974102,3970.786,157.0,-570.0,388.0
398,3979.488,1.9153614044189453,-0.2585737705230713,-9.749189376831055,3980.769,-0.0,0.001065264455974102,-0.001065264455974102,3980.967,151.0,-588.0,369.0
399,3989.373,1.886630892753601,-0.2777273952960968,-9.797073364257812,3990.911,-0.0,0.001065264455974102,-0.001065264455974102,3990.9089999999997,145.0,-570.0,356.0
400,3999.235,1.944091796875,-0.22026655077934265,-9.797073364257812,4000.634,-0.0,0.002130528911948204,-0.001065264455974102,4000.832,145.0,-582.0,369.0
401,4009.3160000000003,1.944091796875,-0.2298433631658554,-9.806650161743164,4010.9680000000003,-0.0,0.002130528911948204,0.0,4010.684,168.0,-570.0,369.0
402,4020.961,1.8962076902389526,-0.2585737705230713,-9.768342971801758,4021.072,-0.001065264455974102,0.002130528911948204,0.001065264455974102,4021.065,151.0,-582.0,356.0
403,4030.972,1.944091796875,-0.22026655077934265,-9.797073364257812,4031.0819999999994,-0.001065264455974102,0.002130528911948204,0.0,4031.274,157.0,-570.0,369.0
404,4040.9790000000003,1.886630892753601,-0.2106897532939911,-9.787496566772461,4041.085,-0.0,0.0,-0.001065264455974102,4041.2790000000005,157.0,-582.0,356.0
405,4050.84,1.867477297782898,-0.2585737705230713,-9.806650161743164,4051.0789999999997,-0.0,-0.002130528911948204,0.0,4051.2769999999996,168.0,-588.0,369.0
406,4060.684,1.9249382019042969,-0.26815059781074524,-9.835380554199219,4060.842,-0.001065264455974102,-0.003195793367922306,-0.001065264455974102,4061.237,139.0,-594.0,343.0
407,4070.5840000000003,1.9153614044189453,-0.23942017555236816,-9.768342971801758,4070.7389999999996,-0.002130528911948204,-0.003195793367922306,-0.001065264455974102,4070.931,145.0,-570.0,369.0
408,4080.4400000000005,1.8962076902389526,-0.2585737705230713,-9.806650161743164,4080.762,-0.001065264455974102,-0.003195793367922306,-0.002130528911948204,4080.9629999999997,151.0,-582.0,362.0
409,4090.2079999999996,1.9249382019042969,-0.19153612852096558,-9.873687744140625,4090.756,-0.0,-0.002130528911948204,-0.002130528911948204,4090.954,163.0,-582.0,375.0
410,4100.191,1.9249382019042969,-0.23942017555236816,-9.864110946655273,4100.677,0.001065264455974102,-0.002130528911948204,-0.001065264455974102,4100.876,145.0,-588.0,369.0
411,4110.0779999999995,1.9057846069335938,-0.24899697303771973,-9.854534149169922,4110.443,-0.0,-0.003195793367922306,-0.001065264455974102,4110.543,139.0,-576.0,376.0
412,4119.964999999999,1.9153614044189453,-0.2777273952960968,-9.77791976928711,4120.715999999999,-0.001065264455974102,-0.00532632227987051,-0.001065264455974102,4120.714000000001,139.0,-570.0,363.0
413,4129.656,1.886630892753601,-0.22026655077934265,-9.806650161743164,4130.617,-0.002130528911948204,-0.00532632227987051,0.0,4130.8150000000005,139.0,-582.0,369.0
414,4139.5160000000005,1.8962076902389526,-0.24899697303771973,-9.797073364257812,4140.799,-0.002130528911948204,-0.003195793367922306,-0.001065264455974102,4141.0,157.0,-594.0,363.0
415,4149.401,1.9249382019042969,-0.23942017555236816,-9.854534149169922,4150.875,-0.001065264455974102,-0.001065264455974102,0.0,4150.876,145.0,-588.0,356.0
416,4159.482,1.9249382019042969,-0.28730419278144836,-9.768342971801758,4160.727,-0.0,-0.001065264455974102,0.0,4160.925,145.0,-576.0,363.0
417,4170.81,1.9249382019042969,-0.23942017555236816,-9.758766174316406,4170.995,-0.0,-0.001065264455974102,-0.001065264455974102,4170.81,151.0,-576.0,369.0
418,4180.988,1.9153614044189453,-0.2585737705230713,-9.787496566772461,4181.04,-0.0,-0.001065264455974102,-0.001065264455974102,4181.233,145.0,-576.0,382.0
419,4190.99,1.8770540952682495,-0.2585737705230713,-9.806650161743164,4191.098,-0.0,0.0,-0.001065264455974102,4191.29,157.0,-605.0,369.0
420,4201.003,1.8962076902389526,-0.23942017555236816,-9.768342971801758,4201.112,0.001065264455974102,0.0,0.0,4201.304999999999,163.0,-576.0,369.0
421,4210.860000000001,1.9249382019042969,-0.2585737705230713,-9.816226959228516,4210.82,-0.0,0.001065264455974102,0.0,4211.218,151.0,-570.0,369.0
422,4220.732,1.9057846069335938,-0.24899697303771973,-9.768342971801758,4220.705,-0.001065264455974102,0.002130528911948204,0.0,4221.297,168.0,-582.0,375.0
423,4230.624,1.9249382019042969,-0.2585737705230713,-9.883264541625977,4230.683,-0.001065264455974102,0.002130528911948204,0.0,4231.080999999999,168.0,-570.0,363.0
424,4240.536999999999,1.9153614044189453,-0.23942017555236816,-9.835380554199219,4240.598999999999,-0.001065264455974102,0.0,0.0,4240.997,168.0,-582.0,369.0
425,4250.431,1.944091796875,-0.22026655077934265,-9.825803756713867,4250.776,-0.001065264455974102,-0.001065264455974102,0.0,4250.977,157.0,-570.0,382.0
426,4260.029,1.867477297782898,-0.2298433631658554,-9.864110946655273,4260.918000000001,-0.001065264455974102,-0.001065264455974102,0.0,4260.916,145.0,-576.0,375.0
427,4269.936000000001,1.886630892753601,-0.26815059781074524,-9.835380554199219,4270.8279999999995,-0.001065264455974102,-0.001065264455974102,0.0,4270.825999999999,145.0,-576.0,388.0
428,4279.817999999999,1.9249382019042969,-0.24899697303771973,-9.787496566772461,4280.585999999999,-0.001065264455974102,-0.002130528911948204,0.0,4280.686000000001,151.0,-582.0,375.0
429,4289.675,1.9153614044189453,-0.26815059781074524,-9.825803756713867,4290.662,-0.002130528911948204,-0.002130528911948204,0.0,4290.860000000001,128.0,-588.0,369.0
430,4299.5650000000005,1.9153614044189453,-0.28730419278144836,-9.768342971801758,4300.849999999999,-0.002130528911948204,-0.002130528911948204,0.0,4301.054,145.0,-582.0,369.0
431,4309.454,1.8962076902389526,-0.24899697303771973,-9.816226959228516,4310.911,-0.001065264455974102,-0.003195793367922306,0.0,4310.909,145.0,-570.0,363.0
432,4319.539,1.8770540952682495,-0.24899697303771973,-9.787496566772461,4320.924,-0.001065264455974102,-0.003195793367922306,0.0,4320.926,151.0,-576.0,376.0
433,4329.228,1.8770540952682495,-0.24899697303771973,-9.825803756713867,4331.238,-0.0,-0.002130528911948204,-0.001065264455974102,4330.858,151.0,-582.0,356.0
434,4341.0419999999995,1.8962076902389526,-0.23942017555236816,-9.854534149169922,4341.09,-0.0,-0.002130528911948204,-0.001065264455974102,4341.0830000000005,145.0,-588.0,363.0
435,4351.025,1.9345149993896484,-0.23942017555236816,-9.825803756713867,4351.117,-0.0,-0.002130528911948204,-0.001065264455974102,4351.3099999999995,151.0,-588.0,356.0
436,4361.030000000001,1.9345149993896484,-0.24899697303771973,-9.816226959228516,4361.1230000000005,-0.0,-0.003195793367922306,-0.002130528911948204,4361.3150000000005,157.0,-576.0,369.0
437,4370.917,1.9249382019042969,-0.24899697303771973,-9.816226959228516,4371.063,-0.001065264455974102,-0.003195793367922306,-0.002130528911948204,4371.455,157.0,-582.0,369.0
438,4380.781,1.9153614044189453,-0.23942017555236816,-9.806650161743164,4380.912,-0.002130528911948204,-0.002130528911948204,-0.002130528911948204,4381.305,163.0,-594.0,376.0
439,4390.691000000001,1.9153614044189453,-0.2298433631658554,-9.806650161743164,4390.835,-0.002130528911948204,-0.001065264455974102,-0.002130528911948204,4391.226,145.0,-588.0,363.0
440,4400.578,1.9345149993896484,-0.23942017555236816,-9.77791976928711,4400.83,-0.002130528911948204,-0.002130528911948204,-0.002130528911948204,4401.028,145.0,-582.0,382.0
441,4410.280000000001,1.9345149993896484,-0.2585737705230713,-9.854534149169922,4410.832,-0.002130528911948204,-0.001065264455974102,-0.001065264455974102,4411.030000000001,139.0,-588.0,369.0
442,4420.101,1.9249382019042969,-0.23942017555236816,-9.835380554199219,4420.991,-0.001065264455974102,-0.001065264455974102,0.0,4420.989,151.0,-594.0,363.0
443,4429.992,1.8770540952682495,-0.23942017555236816,-9.825803756713867,4430.883,-0.001065264455974102,0.0,-0.001065264455974102,4430.8820000000005,157.0,-576.0,376.0
444,4440.071,1.9057846069335938,-0.28730419278144836,-9.806650161743164,4440.473,-0.001065264455974102,0.001065264455974102,-0.001065264455974102,4440.773,145.0,-570.0,382.0
445,4449.927,1.9249382019042969,-0.23942017555236816,-9.797073364257812,4450.863,-0.001065264455974102,0.001065264455974102,-0.001065264455974102,4450.661,139.0,-594.0,356.0
446,4459.623,1.9153614044189453,-0.28730419278144836,-9.84495735168457,4460.826,-0.002130528911948204,0.001065264455974102,-0.001065264455974102,4460.823,163.0,-588.0,350.0
447,4469.703,1.9153614044189453,-0.26815059781074524,-9.835380554199219,4470.835,-0.002130528911948204,0.0,-0.002130528911948204,4470.834,157.0,-576.0,369.0
448,4479.392,1.9057846069335938,-0.2777273952960968,-9.787496566772461,4480.726,-0.001065264455974102,-0.001065264455974102,-0.003195793367922306,4481.124000000001,151.0,-594.0,356.0
449,4489.251,1.9057846069335938,-0.2585737705230713,-9.806650161743164,4491.144,-0.0,-0.002130528911948204,-0.003195793367922306,4490.9619999999995,151.0,-588.0,369.0
450,4500.9980000000005,1.9153614044189453,-0.22026655077934265,-9.873687744140625,4501.043000000001,-0.001065264455974102,-0.003195793367922306,-0.003195793367922306,4501.457,157.0,-588.0,375.0
451,4511.069,1.886630892753601,-0.2585737705230713,-9.739612579345703,4511.1720000000005,-0.001065264455974102,-0.003195793367922306,-0.002130528911948204,4511.368,151.0,-576.0,375.0
452,4521.054999999999,1.9249382019042969,-0.23942017555236816,-9.806650161743164,4521.152,-0.0,-0.002130528911948204,-0.001065264455974102,4521.348,151.0,-576.0,388.0
453,4530.972000000001,1.886630892753601,-0.23942017555236816,-9.854534149169922,4530.911,-0.0,-0.002130528911948204,-0.001065264455974102,4531.303,168.0,-582.0,363.0
454,4540.844,1.8962076902389526,-0.2585737705230713,-9.806650161743164,4540.89,0.001065264455974102,-0.001065264455974102,-0.001065264455974102,4541.487,163.0,-594.0,350.0
455,4550.699,1.8962076902389526,-0.2585737705230713,-9.854534149169922,4550.759,-0.0,0.0,0.0,4551.158,145.0,-588.0,382.0
456,4560.603999999999,1.9057846069335938,-0.26815059781074524,-9.825803756713867,4560.865,-0.0,0.0,0.0,4561.064,163.0,-594.0,363.0
457,4570.336,1.9249382019042969,-0.22026655077934265,-9.730035781860352,4570.69,-0.001065264455974102,-0.001065264455974102,-0.002130528911948204,4571.088,157.0,-582.0,350.0
458,4580.367,1.8962076902389526,-0.26815059781074524,-9.825803756713867,4580.677,-0.002130528911948204,0.0,-0.002130528911948204,4580.977,151.0,-582.0,369.0
459,4590.041,1.9249382019042969,-0.2298433631658554,-9.84495735168457,4590.933,-0.001065264455974102,0.0,-0.001065264455974102,4590.9310000000005,168.0,-588.0,356.0
460,4599.562,1.8962076902389526,-0.26815059781074524,-9.806650161743164,4600.728,0.001065264455974102,-0.002130528911948204,-0.001065264455974102,4600.926,157.0,-565.0,375.0
461,4609.783,1.9249382019042969,-0.2777273952960968,-9.768342971801758,4610.808,0.001065264455974102,-0.002130528911948204,0.0,4611.005999999999,163.0,-570.0,343.0
462,4619.8730000000005,1.886630892753601,-0.2298433631658554,-9.739612579345703,4620.872,0.001065264455974102,0.0,-0.001065264455974102,4620.87,157.0,-570.0,369.0
463,4629.756,1.8962076902389526,-0.19153612852096558,-9.806650161743164,4630.768,-0.0,0.0,-0.002130528911948204,4630.968,157.0,-582.0,350.0
464,4639.411,1.9249382019042969,-0.2585737705230713,-9.835380554199219,4640.781,-0.0,0.0,-0.002130528911948204,4641.178,163.0,-594.0,375.0
465,4649.3,1.9345149993896484,-0.26815059781074524,-9.797073364257812,4650.974,-0.0,0.0,-0.001065264455974102,4650.973,145.0,-588.0,382.0
466,4660.901,1.9728221893310547,-0.23942017555236816,-9.816226959228516,4661.086,-0.0,0.0,0.0,4660.901,157.0,-588.0,375.0
467,4671.099,1.9057846069335938,-0.26815059781074524,-9.749189376831055,4671.188,0.001065264455974102,-0.001065264455974102,0.001065264455974102,4671.381,139.0,-594.0,369.0
468,4681.105,1.8962076902389526,-0.2968810200691223,-9.806650161743164,4681.206999999999,-0.0,0.0,0.0,4681.398999999999,151.0,-559.0,375.0
469,4691.017000000001,1.9153614044189453,-0.24899697303771973,-9.768342971801758,4690.97,-0.0,-0.001065264455974102,-0.001065264455974102,4691.363,151.0,-582.0,369.0
470,4700.892,1.886630892753601,-0.2777273952960968,-9.797073364257812,4700.9439999999995,-0.001065264455974102,-0.001065264455974102,-0.002130528911948204,4701.5419999999995,151.0,-588.0,363.0
471,4710.75,1.9057846069335938,-0.26815059781074524,-9.749189376831055,4710.709,-0.002130528911948204,-0.002130528911948204,-0.002130528911948204,4711.338,145.0,-576.0,375.0
472,4720.688,1.9345149993896484,-0.2298433631658554,-9.816226959228516,4720.909,-0.002130528911948204,-0.002130528911948204,-0.001065264455974102,4720.91,151.0,-582.0,363.0
473,4730.386,1.8962076902389526,-0.23942017555236816,-9.84495735168457,4730.734,-0.001065264455974102,-0.002130528911948204,-0.001065264455974102,4731.132,145.0,-570.0,363.0
474,4740.475,1.9153614044189453,-0.2777273952960968,-9.787496566772461,4740.8279999999995,-0.003195793367922306,-0.003195793367922306,0.0,4741.027,151.0,-582.0,375.0
475,4750.06,1.8962076902389526,-0.26815059781074524,-9.806650161743164,4750.591,-0.003195793367922306,-0.002130528911948204,0.0,4750.8910000000005,174.0,-588.0,382.0
476,4759.951,1.9345149993896484,-0.24899697303771973,-9.787496566772461,4760.439,-0.0,-0.002130528911948204,0.0,4760.7390000000005,157.0,-588.0,369.0
477,4769.838,1.9345149993896484,-0.23942017555236816,-9.787496566772461,4770.896,-0.0,-0.002130528911948204,0.0,4770.6939999999995,145.0,-576.0,350.0
478,4779.89,1.886630892753601,-0.24899697303771973,-9.816226959228516,4780.88,-0.0,-0.001065264455974102,0.0,4781.081,163.0,-582.0,382.0
479,4789.5779999999995,1.944091796875,-0.2585737705230713,-9.864110946655273,4791.0380000000005,-0.0,-0.001065264455974102,-0.001065264455974102,4791.036,157.0,-570.0,369.0
480,4799.467,1.886630892753601,-0.2298433631658554,-9.806650161743164,4800.811000000001,-0.0,-0.001065264455974102,-0.001065264455974102,4801.009,145.0,-582.0,376.0
481,4809.5509999999995,1.944091796875,-0.23942017555236816,-9.84495735168457,4811.157999999999,0.001065264455974102,-0.001065264455974102,-0.002130528911948204,4810.972,151.0,-576.0,376.0
482,4820.9169999999995,1.9249382019042969,-0.24899697303771973,-9.825803756713867,4821.303,-0.0,-0.001065264455974102,-0.001065264455974102,4821.217,151.0,-570.0,389.0
483,4831.126,1.8962076902389526,-0.23942017555236816,-9.84495735168457,4831.22,0.001065264455974102,-0.001065264455974102,-0.001065264455974102,4831.415,163.0,-582.0,376.0
484,4841.130999999999,1.886630892753601,-0.26815059781074524,-9.797073364257812,4841.224,-0.0,0.0,0.0,4841.4169999999995,151.0,-570.0,369.0
485,4851.04,1.9249382019042969,-0.2585737705230713,-9.77791976928711,4850.999,-0.0,0.0,-0.001065264455974102,4851.391,145.0,-588.0,376.0
486,4860.9169999999995,1.9249382019042969,-0.2298433631658554,-9.854534149169922,4861.091,-0.0,0.0,0.0,4861.284000000001,145.0,-599.0,363.0
487,4870.7609999999995,1.9057846069335938,-0.24899697303771973,-9.797073364257812,4870.893,-0.0,0.0,-0.001065264455974102,4871.288,157.0,-570.0,350.0
488,4880.745,1.9153614044189453,-0.28730419278144836,-9.84495735168457,4880.938,-0.0,0.0,-0.001065264455974102,4880.94,157.0,-576.0,363.0
489,4890.613,1.9057846069335938,-0.24899697303771973,-9.825803756713867,4890.954,0.001065264455974102,-0.001065264455974102,-0.002130528911948204,4890.956,157.0,-582.0,356.0
490,4900.093,1.9057846069335938,-0.23942017555236816,-9.816226959228516,4901.08,-0.0,-0.001065264455974102,-0.001065264455974102,4901.080999999999,151.0,-588.0,389.0
491,4910.313,1.886630892753601,-0.2777273952960968,-9.806650161743164,4910.803,-0.001065264455974102,-0.001065264455974102,0.001065264455974102,4911.000999999999,151.0,-565.0,363.0
492,4920.200000000001,1.9249382019042969,-0.24899697303771973,-9.787496566772461,4920.563999999999,-0.0,-0.001065264455974102,0.001065264455974102,4920.664000000001,151.0,-588.0,369.0
493,4930.0560000000005,1.8962076902389526,-0.23942017555236816,-9.84495735168457,4930.936,-0.001065264455974102,-0.001065264455974102,0.0,4930.9349999999995,133.0,-582.0,375.0
494,4939.746999999999,1.9057846069335938,-0.2298433631658554,-9.787496566772461,4940.943,-0.001065264455974102,-0.001065264455974102,-0.001065264455974102,4940.942,168.0,-576.0,375.0
495,4949.631,1.9153614044189453,-0.2585737705230713,-9.806650161743164,4951.114,-0.001065264455974102,-0.002130528911948204,-0.001065264455974102,4951.113,151.0,-588.0,382.0
496,4959.52,1.8962076902389526,-0.24899697303771973,-9.787496566772461,4960.897,-0.001065264455974102,-0.002130528911948204,-0.001065264455974102,4960.929,157.0,-565.0,363.0
497,4969.604,1.8962076902389526,-0.2585737705230713,-9.806650161743164,4970.853,-0.002130528911948204,-0.002130528911948204,-0.001065264455974102,4971.051,163.0,-582.0,356.0
498,4980.965,1.9249382019042969,-0.26815059781074524,-9.816226959228516,4981.150000000001,-0.002130528911948204,-0.002130528911948204,0.0,4980.965,157.0,-582.0,369.0
499,4991.175,1.9153614044189453,-0.22026655077934265,-9.787496566772461,4991.116,-0.002130528911948204,-0.002130528911948204,0.0,4991.309,163.0,-582.0,369.0
500,5001.121,1.9345149993896484,-0.2298433631658554,-9.749189376831055,5001.263,-0.002130528911948204,-0.002130528911948204,-0.001065264455974102,5001.455,145.0,-570.0,375.0
501,5011.103999999999,1.867477297782898,-0.24899697303771973,-9.806650161743164,5011.244,-0.001065264455974102,-0.002130528911948204,-0.001065264455974102,5011.436,145.0,-576.0,363.0
502,5020.969,1.9728221893310547,-0.22026655077934265,-9.825803756713867,5021.135,-0.0,-0.002130528911948204,-0.002130528911948204,5021.527,151.0,-594.0,369.0
503,5030.853999999999,1.8962076902389526,-0.24899697303771973,-9.854534149169922,5031.023,-0.0,0.001065264455974102,-0.001065264455974102,5031.217,157.0,-576.0,350.0
504,5040.746,1.9536685943603516,-0.28730419278144836,-9.787496566772461,5041.003,-0.001065264455974102,0.0,-0.001065264455974102,5041.201,168.0,-565.0,376.0
505,5050.583,1.8770540952682495,-0.2585737705230713,-9.797073364257812,5050.9130000000005,-0.001065264455974102,-0.002130528911948204,0.0,5051.111,163.0,-582.0,363.0
506,5060.551,1.9057846069335938,-0.2585737705230713,-9.806650161743164,5060.901999999999,-0.0,-0.001065264455974102,0.0,5061.101,145.0,-570.0,363.0
507,5070.1669999999995,1.886630892753601,-0.2777273952960968,-9.720458984375,5071.06,-0.001065264455974102,0.0,-0.001065264455974102,5071.058,145.0,-588.0,382.0
508,5080.222,1.9057846069335938,-0.2298433631658554,-9.84495735168457,5080.583,-0.001065264455974102,-0.001065264455974102,-0.001065264455974102,5080.883,157.0,-570.0,369.0
509,5090.109,1.9249382019042969,-0.24899697303771973,-9.864110946655273,5090.902,-0.001065264455974102,0.0,-0.001065264455974102,5090.903,151.0,-576.0,382.0
510,5099.996,1.944091796875,-0.2777273952960968,-9.77791976928711,5101.006,-0.002130528911948204,0.0,0.0,5101.004,145.0,-588.0,382.0
511,5109.692,1.9632453918457031,-0.2585737705230713,-9.816226959228516,5111.172,-0.001065264455974102,-0.001065264455974102,0.001065264455974102,5111.17,157.0,-582.0,369.0
512,5119.2080000000005,1.9153614044189453,-0.24899697303771973,-9.854534149169922,5120.985,-0.0,0.0,0.001065264455974102,5120.984,151.0,-570.0,388.0
513,5129.098,1.867477297782898,-0.26815059781074524,-9.806650161743164,5131.381,-0.0,0.0,0.0,5130.9800000000005,139.0,-588.0,369.0
514,5140.93,1.9249382019042969,-0.24899697303771973,-9.720458984375,5141.215,-0.0,-0.001065264455974102,-0.001065264455974102,5141.2300000000005,157.0,-582.0,369.0
515,5151.19,1.944091796875,-0.20111294090747833,-9.825803756713867,5151.294,-0.002130528911948204,0.0,-0.001065264455974102,5151.487,151.0,-588.0,363.0
516,5161.203,1.886630892753601,-0.2585737705230713,-9.825803756713867,5161.307,-0.001065264455974102,-0.001065264455974102,-0.002130528911948204,5161.503,163.0,-565.0,376.0
517,5171.179,1.8962076902389526,-0.20111294090747833,-9.806650161743164,5171.278,-0.0,-0.003195793367922306,-0.001065264455974102,5171.47,157.0,-594.0,363.0
518,5181.037,1.9345149993896484,-0.24899697303771973,-9.797073364257812,5181.075,-0.001065264455974102,-0.002130528911948204,0.0,5181.473000000001,151.0,-576.0,356.0
519,5190.836,1.9536685943603516,-0.24899697303771973,-9.835380554199219,5190.960999999999,-0.001065264455974102,-0.002130528911948204,-0.001065264455974102,5191.356,133.0,-570.0,376.0
520,5200.826,1.9057846069335938,-0.24899697303771973,-9.787496566772461,5200.921,-0.002130528911948204,-0.002130528911948204,-0.002130528911948204,5201.114,157.0,-588.0,369.0
521,5210.637000000001,1.9728221893310547,-0.24899697303771973,-9.816226959228516,5210.959,-0.001065264455974102,-0.001065264455974102,-0.001065264455974102,5211.158,157.0,-576.0,363.0
522,5220.405000000001,1.9153614044189453,-0.26815059781074524,-9.749189376831055,5220.957,-0.0,0.0,-0.002130528911948204,5221.156,145.0,-582.0,356.0
523,5230.389999999999,1.9345149993896484,-0.2777273952960968,-9.77791976928711,5230.721,-0.0,0.0,-0.002130528911948204,5231.021,163.0,-576.0,350.0
524,5240.280000000001,1.9057846069335938,-0.2585737705230713,-9.825803756713867,5240.633,0.001065264455974102,0.0,-0.002130528911948204,5240.933,157.0,-588.0,369.0
525,5250.164,1.9057846069335938,-0.2298433631658554,-9.825803756713867,5250.911999999999,-0.001065264455974102,0.0,-0.001065264455974102,5250.91,157.0,-576.0,363.0
526,5260.054,1.9249382019042969,-0.28730419278144836,-9.797073364257812,5261.03,-0.002130528911948204,0.0,0.0,5261.027,163.0,-588.0,376.0
527,5269.711,1.9536685943603516,-0.2298433631658554,-9.835380554199219,5271.141,-0.001065264455974102,0.0,-0.001065264455974102,5271.138,145.0,-565.0,382.0
528,5279.794,1.8962076902389526,-0.22026655077934265,-9.854534149169922,5280.907,-0.0,0.0,-0.001065264455974102,5280.905,168.0,-588.0,376.0
529,5289.681,1.8962076902389526,-0.2585737705230713,-9.825803756713867,5290.916,-0.0,0.0,-0.001065264455974102,5291.113,145.0,-582.0,376.0
530,5301.014999999999,1.9057846069335938,-0.2585737705230713,-9.816226959228516,5301.201,-0.0,0.0,-0.001065264455974102,5301.014999999999,163.0,-570.0,363.0
531,5311.216,1.9632453918457031,-0.2585737705230713,-9.825803756713867,5311.317,-0.001065264455974102,0.0,-0.001065264455974102,5311.51,145.0,-582.0,363.0
532,5321.225,1.9153614044189453,-0.2585737705230713,-9.816226959228516,5321.331,-0.001065264455974102,-0.001065264455974102,0.0,5321.527,151.0,-588.0,363.0
533,5331.232,1.944091796875,-0.22026655077934265,-9.787496566772461,5331.417,-0.0,-0.002130528911948204,-0.001065264455974102,5331.615,145.0,-588.0,369.0
534,5341.051,1.9153614044189453,-0.22026655077934265,-9.797073364257812,5341.216,0.001065264455974102,-0.002130528911948204,-0.001065264455974102,5341.408,151.0,-582.0,363.0
535,5350.926,1.8962076902389526,-0.23942017555236816,-9.806650161743164,5350.894,-0.0,-0.001065264455974102,-0.001065264455974102,5351.485000000001,151.0,-599.0,369.0
536,5360.826,1.9249382019042969,-0.28730419278144836,-9.825803756713867,5360.793000000001,-0.0,-0.001065264455974102,-0.002130528911948204,5361.385,151.0,-570.0,369.0
537,5370.688999999999,1.9249382019042969,-0.2777273952960968,-9.797073364257812,5371.018,-0.001065264455974102,-0.001065264455974102,-0.001065264455974102,5371.217,151.0,-588.0,369.0
538,5380.4259999999995,1.8962076902389526,-0.2777273952960968,-9.787496566772461,5380.976000000001,-0.001065264455974102,-0.002130528911948204,-0.002130528911948204,5381.175,151.0,-594.0,363.0
539,5390.25,1.944091796875,-0.24899697303771973,-9.835380554199219,5391.143,-0.002130528911948204,-0.002130528911948204,-0.002130528911948204,5391.1410000000005,168.0,-576.0,350.0
540,5400.137,1.9249382019042969,-0.24899697303771973,-9.90241813659668,5401.067,-0.002130528911948204,-0.003195793367922306,-0.002130528911948204,5401.066,163.0,-582.0,375.0
541,5410.024,1.9057846069335938,-0.26815059781074524,-9.835380554199219,5410.818,-0.001065264455974102,-0.002130528911948204,-0.001065264455974102,5410.918,163.0,-565.0,363.0
542,5419.906,1.9249382019042969,-0.2298433631658554,-9.873687744140625,5421.014,-0.0,-0.003195793367922306,-0.001065264455974102,5421.013,157.0,-582.0,363.0
543,5429.763,1.944091796875,-0.24899697303771973,-9.864110946655273,5430.975,-0.0,-0.003195793367922306,0.0,5430.973,145.0,-582.0,369.0
544,5439.851,1.8770540952682495,-0.23942017555236816,-9.825803756713867,5440.983,-0.0,-0.002130528911948204,0.0,5440.981,151.0,-576.0,376.0
545,5449.736,1.9153614044189453,-0.26815059781074524,-9.730035781860352,5450.967000000001,-0.001065264455974102,-0.002130528911948204,0.0,5451.1669999999995,151.0,-565.0,369.0
546,5460.997,1.9728221893310547,-0.23942017555236816,-9.787496566772461,5461.279,-0.001065264455974102,0.0,0.0,5460.997,157.0,-570.0,389.0
547,5471.239,1.9249382019042969,-0.2777273952960968,-9.77791976928711,5471.3,-0.0,0.0,-0.001065264455974102,5471.496,157.0,-565.0,363.0
548,5481.249,1.9153614044189453,-0.2777273952960968,-9.77791976928711,5481.3460000000005,-0.001065264455974102,0.001065264455974102,-0.001065264455974102,5481.538,133.0,-588.0,356.0
549,5491.268,1.9345149993896484,-0.24899697303771973,-9.797073364257812,5491.407,-0.001065264455974102,0.001065264455974102,0.0,5491.399,157.0,-576.0,363.0
550,5501.131,1.9249382019042969,-0.24899697303771973,-9.816226959228516,5501.182,-0.0,0.001065264455974102,-0.001065264455974102,5501.78,151.0,-582.0,350.0
551,5510.983,1.9345149993896484,-0.2298433631658554,-9.797073364257812,5510.9490000000005,0.001065264455974102,0.001065264455974102,-0.001065264455974102,5511.54,151.0,-565.0,356.0
552,5520.8769999999995,1.9345149993896484,-0.24899697303771973,-9.854534149169922,5520.93,0.001065264455974102,0.001065264455974102,-0.002130528911948204,5521.329,157.0,-570.0,350.0
553,5530.79,1.9057846069335938,-0.2298433631658554,-9.835380554199219,5531.036,-0.0,0.0,-0.001065264455974102,5531.2390000000005,157.0,-565.0,350.0
554,5540.508,1.8770540952682495,-0.23942017555236816,-9.77791976928711,5541.0560000000005,-0.001065264455974102,-0.002130528911948204,-0.001065264455974102,5541.254,157.0,-582.0,369.0
555,5550.494,1.9919757843017578,-0.26815059781074524,-9.892841339111328,5550.82,-0.0,-0.001065264455974102,-0.001065264455974102,5551.12,157.0,-594.0,356.0
556,5560.182,1.8770540952682495,-0.2298433631658554,-9.825803756713867,5560.706,-0.0,0.0,-0.002130528911948204,5561.006,151.0,-570.0,369.0
557,5570.069,1.9057846069335938,-0.2777273952960968,-9.768342971801758,5571.199,-0.0,-0.002130528911948204,-0.002130528911948204,5570.997,168.0,-582.0,363.0
558,5580.16,1.8962076902389526,-0.20111294090747833,-9.816226959228516,5581.127,-0.0,-0.004261057823896408,-0.002130528911948204,5581.129,157.0,-594.0,376.0
559,5590.012,1.9057846069335938,-0.24899697303771973,-9.787496566772461,5591.075,-0.0,-0.004261057823896408,0.0,5591.273,145.0,-570.0,363.0
560,5599.43,1.886630892753601,-0.26815059781074524,-9.77791976928711,5601.514,0.001065264455974102,-0.003195793367922306,0.001065264455974102,5601.112999999999,151.0,-588.0,369.0
561,5611.341,1.9153614044189453,-0.2106897532939911,-9.816226959228516,5611.143,0.001065264455974102,-0.001065264455974102,0.0,5611.341,151.0,-576.0,363.0
562,5621.306,1.9153614044189453,-0.23942017555236816,-9.768342971801758,5621.291,0.001065264455974102,-0.001065264455974102,-0.001065264455974102,5621.306,151.0,-582.0,356.0
563,5631.285,1.8770540952682495,-0.23942017555236816,-9.787496566772461,5631.342,-0.0,-0.003195793367922306,0.0,5631.534000000001,157.0,-582.0,382.0
564,5641.2699999999995,1.9536685943603516,-0.24899697303771973,-9.854534149169922,5641.373,-0.001065264455974102,-0.002130528911948204,0.0,5641.566,163.0,-594.0,363.0
565,5651.28,1.886630892753601,-0.2106897532939911,-9.835380554199219,5651.3859999999995,-0.001065264455974102,-0.001065264455974102,-0.001065264455974102,5651.579,163.0,-582.0,369.0
566,5661.233,1.867477297782898,-0.24899697303771973,-9.816226959228516,5661.412,-0.001065264455974102,-0.002130528911948204,-0.002130528911948204,5661.613,151.0,-588.0,350.0
567,5671.032,1.9153614044189453,-0.20111294090747833,-9.90241813659668,5670.998,-0.0,-0.002130528911948204,-0.001065264455974102,5671.589,157.0,-588.0,369.0
568,5680.933,1.9057846069335938,-0.2585737705230713,-9.835380554199219,5680.9039999999995,-0.0,0.001065264455974102,-0.001065264455974102,5681.496,151.0,-576.0,363.0
569,5690.8279999999995,1.867477297782898,-0.22026655077934265,-9.739612579345703,5691.084,0.001065264455974102,0.001065264455974102,0.0,5691.283,157.0,-576.0,382.0
570,5700.764999999999,1.9345149993896484,-0.24899697303771973,-9.758766174316406,5701.116,0.001065264455974102,0.0,-0.001065264455974102,5701.117,145.0,-576.0,369.0
571,5710.348,1.9249382019042969,-0.2585737705230713,-9.77791976928711,5711.2660000000005,-0.0,0.0,0.0,5711.198,157.0,-576.0,369.0
572,5720.238,1.9153614044189453,-0.2777273952960968,-9.787496566772461,5721.133,-0.0,0.0,0.0,5721.130999999999,145.0,-594.0,356.0
573,5730.322,1.9153614044189453,-0.23942017555236816,-9.749189376831055,5730.682,-0.001065264455974102,0.0,-0.001065264455974102,5730.982,157.0,-576.0,369.0
574,5740.009,1.9153614044189453,-0.2298433631658554,-9.835380554199219,5741.079,-0.002130528911948204,-0.001065264455974102,0.0,5741.081,157.0,-576.0,376.0
575,5747.783,1.9536685943603516,-0.23942017555236816,-9.825803756713867,5751.358,-0.002130528911948204,-0.001065264455974102,0.0,5751.156,151.0,-576.0,350.0
576,5761.598,1.886630892753601,-0.2777273952960968,-9.77791976928711,5761.001,-0.002130528911948204,-0.003195793367922306,-0.001065264455974102,5761.598,157.0,-594.0,376.0
577,5769.839,1.9057846069335938,-0.2298433631658554,-9.825803756713867,5771.21,-0.001065264455974102,-0.003195793367922306,-0.001065264455974102,5771.208,145.0,-576.0,389.0
578,5779.728,1.9249382019042969,-0.2298433631658554,-9.77791976928711,5781.339,-0.002130528911948204,-0.003195793367922306,-0.001065264455974102,5781.1539999999995,157.0,-576.0,356.0
579,5791.32,1.8962076902389526,-0.2106897532939911,-9.758766174316406,5791.351,-0.002130528911948204,-0.003195793367922306,0.0,5791.36,145.0,-576.0,369.0
580,5801.325000000001,1.9632453918457031,-0.23942017555236816,-9.816226959228516,5801.419,-0.0,-0.002130528911948204,-0.001065264455974102,5801.611,151.0,-565.0,363.0
581,5811.33,1.944091796875,-0.26815059781074524,-9.835380554199219,5811.434,-0.0,-0.001065264455974102,-0.001065264455974102,5811.626,157.0,-582.0,363.0
582,5821.217,1.8962076902389526,-0.23942017555236816,-9.768342971801758,5821.359,-0.0,-0.001065264455974102,-0.001065264455974102,5821.751,157.0,-576.0,363.0
583,5831.111,1.8962076902389526,-0.2298433631658554,-9.825803756713867,5831.254000000001,-0.0,-0.001065264455974102,0.0,5831.648999999999,174.0,-576.0,369.0
584,5840.978,1.9057846069335938,-0.2585737705230713,-9.797073364257812,5840.94,-0.0,-0.002130528911948204,-0.001065264455974102,5841.531,163.0,-582.0,363.0
585,5850.916,1.9057846069335938,-0.2585737705230713,-9.77791976928711,5851.137,-0.0,-0.002130528911948204,-0.002130528911948204,5851.335,151.0,-576.0,369.0
586,5860.584,1.9153614044189453,-0.22026655077934265,-9.816226959228516,5860.933,-0.0,-0.002130528911948204,-0.002130528911948204,5861.335,133.0,-594.0,350.0
587,5870.421,1.9153614044189453,-0.28730419278144836,-9.787496566772461,5870.838,-0.001065264455974102,-0.002130528911948204,-0.001065264455974102,5871.338,163.0,-576.0,369.0
588,5880.290999999999,1.9153614044189453,-0.22026655077934265,-9.825803756713867,5881.183,-0.002130528911948204,-0.002130528911948204,-0.001065264455974102,5881.181,151.0,-570.0,363.0
589,5890.177000000001,1.9345149993896484,-0.24899697303771973,-9.816226959228516,5890.728,-0.002130528911948204,-0.002130528911948204,-0.001065264455974102,5891.028,151.0,-582.0,369.0
590,5900.263,1.9153614044189453,-0.23942017555236816,-9.816226959228516,5901.049999999999,-0.002130528911948204,-0.001065264455974102,0.0,5901.049000000001,145.0,-565.0,369.0
591,5910.123,1.9153614044189453,-0.24899697303771973,-9.787496566772461,5911.093,-0.001065264455974102,-0.001065264455974102,-0.001065264455974102,5911.090999999999,145.0,-582.0,356.0
592,5920.01,1.9153614044189453,-0.23942017555236816,-9.816226959228516,5921.084,-0.0,-0.001065264455974102,-0.001065264455974102,5921.285,151.0,-576.0,395.0
593,5929.695,1.9153614044189453,-0.23942017555236816,-9.787496566772461,5931.067,-0.001065264455974102,0.0,0.0,5931.264999999999,157.0,-588.0,356.0
594,5939.58,1.9057846069335938,-0.2777273952960968,-9.806650161743164,5941.208,-0.001065264455974102,-0.001065264455974102,0.0,5941.206,163.0,-600.0,369.0
595,5949.641,1.8962076902389526,-0.23942017555236816,-9.797073364257812,5951.327,-0.0,-0.001065264455974102,0.0,5951.141,157.0,-576.0,376.0
596,5961.3589999999995,1.9345149993896484,-0.24899697303771973,-9.816226959228516,5961.447,-0.0,-0.001065264455974102,-0.001065264455974102,5961.44,163.0,-582.0,369.0
597,5971.351000000001,1.9249382019042969,-0.26815059781074524,-9.825803756713867,5971.455,-0.001065264455974102,-0.002130528911948204,-0.001065264455974102,5971.648,157.0,-582.0,369.0
598,5981.3330000000005,1.9153614044189453,-0.26815059781074524,-9.873687744140625,5981.433,-0.001065264455974102,-0.002130528911948204,-0.001065264455974102,5981.626,145.0,-594.0,382.0
599,5991.146,1.944091796875,-0.23942017555236816,-9.864110946655273,5991.444,-0.002130528911948204,-0.003195793367922306,-0.002130528911948204,5991.643,157.0,-576.0,376.0
600,6001.037,1.9057846069335938,-0.2585737705230713,-9.77791976928711,6001.1900000000005,-0.002130528911948204,-0.003195793367922306,-0.003195793367922306,6001.782,151.0,-588.0,376.0
601,6010.927,1.886630892753601,-0.24899697303771973,-9.806650161743164,6011.0869999999995,-0.002130528911948204,-0.003195793367922306,-0.001065264455974102,6011.478999999999,163.0,-576.0,350.0
602,6020.789,1.8962076902389526,-0.2298433631658554,-9.825803756713867,6021.116,-0.001065264455974102,-0.003195793367922306,-0.001065264455974102,6021.3150000000005,157.0,-588.0,356.0
603,6030.523999999999,1.9057846069335938,-0.2585737705230713,-9.835380554199219,6031.071,-0.001065264455974102,-0.003195793367922306,-0.001065264455974102,6031.269,139.0,-594.0,369.0
604,6040.545,1.8962076902389526,-0.23942017555236816,-9.806650161743164,6040.884,-0.0,-0.002130528911948204,-0.002130528911948204,6041.184,157.0,-582.0,382.0
605,6050.228,1.8770540952682495,-0.2298433631658554,-9.825803756713867,6050.788,-0.0,-0.002130528911948204,-0.002130528911948204,6051.088,168.0,-576.0,376.0
606,6060.3150000000005,1.9249382019042969,-0.24899697303771973,-9.854534149169922,6061.1050000000005,-0.001065264455974102,-0.001065264455974102,-0.001065264455974102,6061.107,145.0,-570.0,350.0
607,6070.171,1.9057846069335938,-0.26815059781074524,-9.816226959228516,6071.1539999999995,-0.0,-0.001065264455974102,-0.001065264455974102,6071.153,139.0,-582.0,369.0
608,6079.862,1.8770540952682495,-0.23942017555236816,-9.77791976928711,6081.323,-0.0,-0.002130528911948204,-0.001065264455974102,6081.321,168.0,-576.0,376.0
609,6089.95,1.944091796875,-0.26815059781074524,-9.787496566772461,6091.058,-0.0,-0.002130528911948204,0.0,6091.255999999999,157.0,-582.0,369.0
610,6099.636,1.9153614044189453,-0.23942017555236816,-9.77791976928711,6101.295999999999,-0.0,-0.001065264455974102,0.0,6101.098,157.0,-582.0,376.0
611,6111.196,1.886630892753601,-0.23942017555236816,-9.77791976928711,6111.378000000001,-0.0,-0.001065264455974102,-0.001065264455974102,6111.196,151.0,-588.0,382.0
612,6121.375,1.9057846069335938,-0.23942017555236816,-9.84495735168457,6121.468,0.001065264455974102,0.0,-0.001065264455974102,6121.660999999999,151.0,-582.0,369.0
613,6131.373,1.9153614044189453,-0.24899697303771973,-9.787496566772461,6131.475,-0.0,0.0,-0.001065264455974102,6131.668000000001,168.0,-570.0,369.0
614,6141.389,1.9057846069335938,-0.2968810200691223,-9.84495735168457,6141.577,-0.001065264455974102,0.0,-0.001065264455974102,6141.575,163.0,-594.0,363.0
615,6151.195000000001,1.886630892753601,-0.2777273952960968,-9.797073364257812,6151.361,-0.0,-0.001065264455974102,-0.001065264455974102,6151.557000000001,157.0,-576.0,363.0
616,6161.088000000001,1.9632453918457031,-0.24899697303771973,-9.84495735168457,6161.248,-0.001065264455974102,-0.001065264455974102,-0.002130528911948204,6161.643,151.0,-570.0,363.0
617,6170.9800000000005,1.886630892753601,-0.2585737705230713,-9.77791976928711,6171.14,-0.001065264455974102,-0.001065264455974102,-0.003195793367922306,6171.336,168.0,-594.0,363.0
618,6180.849,1.944091796875,-0.22026655077934265,-9.797073364257812,6181.171,-0.001065264455974102,-0.001065264455974102,-0.002130528911948204,6181.371999999999,139.0,-576.0,369.0
619,6190.776,1.9057846069335938,-0.2298433631658554,-9.864110946655273,6191.1230000000005,-0.001065264455974102,-0.001065264455974102,-0.002130528911948204,6191.321,151.0,-576.0,376.0
620,6200.398,1.944091796875,-0.26815059781074524,-9.739612579345703,6201.286,-0.0,-0.002130528911948204,-0.001065264455974102,6201.284000000001,151.0,-582.0,350.0
621,6210.282,1.867477297782898,-0.24899697303771973,-9.835380554199219,6210.84,0.001065264455974102,-0.002130528911948204,-0.001065264455974102,6211.14,145.0,-594.0,382.0
622,6220.169,1.944091796875,-0.23942017555236816,-9.816226959228516,6221.116,-0.0,0.0,-0.001065264455974102,6221.313999999999,151.0,-559.0,356.0
623,6230.254999999999,1.886630892753601,-0.26815059781074524,-9.797073364257812,6231.238,-0.001065264455974102,-0.001065264455974102,-0.002130528911948204,6231.236,157.0,-588.0,369.0
624,6240.113,1.8962076902389526,-0.26815059781074524,-9.768342971801758,6241.191,-0.001065264455974102,-0.002130528911948204,-0.001065264455974102,6241.389,151.0,-588.0,369.0
625,6249.998,1.944091796875,-0.23942017555236816,-9.835380554199219,6251.041,-0.001065264455974102,-0.002130528911948204,-0.001065264455974102,6251.439,157.0,-600.0,350.0
626,6259.688,1.8962076902389526,-0.23942017555236816,-9.835380554199219,6261.095,-0.002130528911948204,-0.002130528911948204,-0.001065264455974102,6261.093,157.0,-588.0,369.0
627,6269.772,1.9249382019042969,-0.20111294090747833,-9.806650161743164,6271.414,-0.002130528911948204,-0.002130528911948204,-0.001065264455974102,6271.228,145.0,-582.0,369.0
628,6281.417,1.944091796875,-0.2298433631658554,-9.816226959228516,6281.517,-0.001065264455974102,0.0,-0.001065264455974102,6281.51,151.0,-582.0,369.0
629,6291.400000000001,1.8962076902389526,-0.22026655077934265,-9.77791976928711,6291.502,-0.001065264455974102,0.0,-0.002130528911948204,6291.6939999999995,157.0,-565.0,382.0
630,6301.405,1.886630892753601,-0.23942017555236816,-9.797073364257812,6301.509,-0.001065264455974102,0.0,-0.001065264455974102,6301.701999999999,151.0,-570.0,356.0
631,6311.298,1.9057846069335938,-0.23942017555236816,-9.816226959228516,6311.543000000001,0.001065264455974102,0.0,0.0,6311.741,145.0,-588.0,376.0
632,6321.150000000001,1.944091796875,-0.2585737705230713,-9.77791976928711,6321.1,-0.0,-0.001065264455974102,0.0,6321.692,151.0,-588.0,363.0
633,6331.0380000000005,1.9057846069335938,-0.24899697303771973,-9.816226959228516,6331.089999999999,-0.0,-0.001065264455974102,0.0,6331.4890000000005,145.0,-588.0,356.0
634,6340.933,1.9057846069335938,-0.26815059781074524,-9.806650161743164,6340.992,-0.001065264455974102,-0.001065264455974102,0.0,6341.391,163.0,-576.0,350.0
635,6350.862,1.9153614044189453,-0.2777273952960968,-9.77791976928711,6351.218,0.001065264455974102,0.0,0.0,6351.216,139.0,-570.0,363.0
636,6360.6449999999995,1.9153614044189453,-0.23942017555236816,-9.787496566772461,6361.135,-0.0,-0.001065264455974102,0.0,6361.3330000000005,157.0,-594.0,382.0
637,6370.539,1.9536685943603516,-0.24899697303771973,-9.835380554199219,6371.276,-0.0,-0.001065264455974102,0.0,6371.075,145.0,-582.0,356.0
638,6380.088,1.8962076902389526,-0.23942017555236816,-9.835380554199219,6381.09,-0.0,-0.001065264455974102,0.0,6381.288,145.0,-576.0,369.0
639,6390.311,1.886630892753601,-0.2298433631658554,-9.77791976928711,6391.239,-0.001065264455974102,-0.001065264455974102,-0.001065264455974102,6391.037,139.0,-588.0,343.0
640,6400.169,1.9057846069335938,-0.2298433631658554,-9.806650161743164,6401.363,-0.001065264455974102,-0.002130528911948204,-0.001065264455974102,6401.361,163.0,-582.0,376.0
641,6410.056,1.9153614044189453,-0.24899697303771973,-9.787496566772461,6411.184,-0.0,-0.002130528911948204,-0.001065264455974102,6411.186,145.0,-582.0,389.0
642,6419.942,1.9153614044189453,-0.22026655077934265,-9.825803756713867,6421.305,-0.0,-0.002130528911948204,-0.001065264455974102,6421.307,145.0,-570.0,382.0
643,6429.83,1.9249382019042969,-0.2298433631658554,-9.816226959228516,6431.477,-0.0,-0.002130528911948204,0.0,6431.192,157.0,-588.0,376.0
644,6441.441,1.9057846069335938,-0.24899697303771973,-9.787496566772461,6441.500999999999,-0.0,-0.002130528911948204,0.0,6441.494,157.0,-588.0,369.0
645,6451.4490000000005,1.9249382019042969,-0.22026655077934265,-9.806650161743164,6451.551,-0.0,-0.002130528911948204,0.0,6451.7429999999995,157.0,-582.0,389.0
646,6461.432000000001,1.9057846069335938,-0.2298433631658554,-9.797073364257812,6461.541,-0.0,-0.001065264455974102,0.0,6461.597000000001,145.0,-582.0,382.0
647,6471.345,1.9249382019042969,-0.2585737705230713,-9.768342971801758,6471.581999999999,0.001065264455974102,-0.001065264455974102,-0.001065264455974102,6471.58,157.0,-559.0,350.0
648,6481.194,1.9249382019042969,-0.23942017555236816,-9.825803756713867,6481.349,0.001065264455974102,-0.001065264455974102,-0.001065264455974102,6481.740000000001,157.0,-582.0,369.0
649,6491.086,1.8962076902389526,-0.2585737705230713,-9.787496566772461,6491.38,0.001065264455974102,-0.001065264455974102,0.0,6491.579,157.0,-588.0,376.0
650,6500.99,1.9153614044189453,-0.2585737705230713,-9.864110946655273,6501.246,-0.0,-0.001065264455974102,0.0,6501.643999999999,151.0,-570.0,376.0
651,6510.9130000000005,1.8962076902389526,-0.26815059781074524,-9.797073364257812,6511.259,-0.0,-0.002130528911948204,0.0,6511.257,151.0,-582.0,382.0
652,6520.501,1.9153614044189453,-0.20111294090747833,-9.806650161743164,6521.029,-0.001065264455974102,-0.001065264455974102,0.0,6521.329,163.0,-588.0,363.0
653,6530.388,1.9057846069335938,-0.24899697303771973,-9.806650161743164,6530.912,-0.001065264455974102,-0.001065264455974102,-0.001065264455974102,6531.212,151.0,-582.0,369.0
654,6540.275000000001,1.9632453918457031,-0.2298433631658554,-9.768342971801758,6541.407,-0.001065264455974102,-0.001065264455974102,-0.001065264455974102,6541.2080000000005,157.0,-582.0,356.0
655,6550.361,1.8962076902389526,-0.2298433631658554,-9.739612579345703,6551.205000000001,-0.001065264455974102,-0.002130528911948204,-0.001065264455974102,6551.402999999999,157.0,-570.0,382.0
656,6560.022,1.944091796875,-0.24899697303771973,-9.77791976928711,6561.277999999999,-0.001065264455974102,-0.001065264455974102,-0.001065264455974102,6561.276000000001,157.0,-582.0,356.0
657,6569.91,1.886630892753601,-0.24899697303771973,-9.825803756713867,6571.361,-0.001065264455974102,0.0,-0.001065264455974102,6571.359,157.0,-576.0,363.0
658,6579.799999999999,1.9153614044189453,-0.22026655077934265,-9.787496566772461,6581.181,-0.001065264455974102,0.001065264455974102,-0.001065264455974102,6581.183,145.0,-570.0,369.0
659,6589.884,1.9153614044189453,-0.26815059781074524,-9.816226959228516,6591.48,-0.001065264455974102,0.0,-0.001065264455974102,6591.298,151.0,-588.0,356.0
660,6601.464,1.9249382019042969,-0.26815059781074524,-9.806650161743164,6601.51,-0.002130528911948204,-0.001065264455974102,-0.001065264455974102,6601.719,157.0,-588.0,363.0
661,6611.476,1.9153614044189453,-0.23942017555236816,-9.854534149169922,6611.581,-0.002130528911948204,-0.001065264455974102,-0.001065264455974102,6611.773999999999,157.0,-565.0,376.0
662,6621.485,1.8962076902389526,-0.23942017555236816,-9.825803756713867,6621.588,-0.001065264455974102,-0.001065264455974102,-0.002130528911948204,6621.782999999999,157.0,-565.0,363.0
663,6631.112,1.9153614044189453,-0.23942017555236816,-9.797073364257812,6631.3,-0.0,-0.002130528911948204,-0.001065264455974102,6631.909000000001,163.0,-570.0,376.0
664,6641.2880000000005,1.944091796875,-0.2298433631658554,-9.806650161743164,6641.387,-0.0,-0.003195793367922306,-0.001065264455974102,6641.379,157.0,-582.0,363.0
665,6651.1449999999995,1.9153614044189453,-0.2585737705230713,-9.816226959228516,6651.094,-0.0,-0.002130528911948204,-0.001065264455974102,6651.487,163.0,-594.0,363.0
666,6661.034,1.9153614044189453,-0.2298433631658554,-9.797073364257812,6661.284000000001,-0.001065264455974102,-0.002130528911948204,-0.002130528911948204,6661.482,151.0,-570.0,376.0
667,6670.738,1.9249382019042969,-0.24899697303771973,-9.797073364257812,6671.291,-0.001065264455974102,-0.002130528911948204,-0.001065264455974102,6671.4890000000005,151.0,-588.0,369.0
668,6680.772,1.9057846069335938,-0.23942017555236816,-9.77791976928711,6681.250999999999,-0.002130528911948204,-0.003195793367922306,-0.001065264455974102,6681.45,163.0,-588.0,382.0
669,6690.646,1.9345149993896484,-0.24899697303771973,-9.825803756713867,6691.142,-0.002130528911948204,-0.002130528911948204,0.0,6691.54,157.0,-576.0,350.0
670,6700.529,1.9249382019042969,-0.24899697303771973,-9.854534149169922,6700.882,-0.002130528911948204,-0.002130528911948204,0.0,6700.982,157.0,-588.0,369.0
671,6710.384999999999,1.886630892753601,-0.24899697303771973,-9.806650161743164,6711.3820000000005,-0.002130528911948204,-0.002130528911948204,-0.001065264455974102,6711.384,168.0,-588.0,382.0
672,6720.071,1.9153614044189453,-0.2298433631658554,-9.768342971801758,6721.257,-0.0,-0.001065264455974102,-0.001065264455974102,6721.657999999999,151.0,-576.0,382.0
673,6729.958,1.9057846069335938,-0.24899697303771973,-9.825803756713867,6731.441,-0.001065264455974102,0.0,-0.001065264455974102,6731.439,163.0,-582.0,376.0
674,6739.847,1.9057846069335938,-0.2777273952960968,-9.797073364257812,6741.1849999999995,-0.001065264455974102,0.0,-0.001065264455974102,6741.383,139.0,-570.0,389.0
675,6749.702,1.8962076902389526,-0.24899697303771973,-9.825803756713867,6751.715,-0.001065264455974102,-0.001065264455974102,-0.001065264455974102,6751.329,145.0,-570.0,369.0
676,6761.523999999999,1.8962076902389526,-0.22026655077934265,-9.883264541625977,6761.549999999999,-0.001065264455974102,0.0,-0.001065264455974102,6761.559,157.0,-588.0,376.0
677,6771.51,1.8962076902389526,-0.23942017555236816,-9.854534149169922,6771.601000000001,-0.0,0.0,-0.001065264455974102,6771.793,168.0,-576.0,382.0
678,6781.508,1.886630892753601,-0.2777273952960968,-9.835380554199219,6781.606,-0.0,0.0,-0.001065264455974102,6781.799,145.0,-570.0,382.0
679,6791.426,1.9057846069335938,-0.2298433631658554,-9.835380554199219,6791.572,-0.0,-0.001065264455974102,-0.001065264455974102,6791.764,163.0,-582.0,363.0
680,6801.291,1.886630892753601,-0.2298433631658554,-9.816226959228516,6801.454,0.001065264455974102,-0.001065264455974102,-0.001065264455974102,6801.8460000000005,163.0,-576.0,369.0
681,6811.1810000000005,1.944091796875,-0.26815059781074524,-9.864110946655273,6811.429,0.003195793367922306,-0.001065264455974102,-0.001065264455974102,6811.6269999999995,157.0,-570.0,376.0
682,6821.056,1.9057846069335938,-0.24899697303771973,-9.806650161743164,6821.302000000001,0.001065264455974102,-0.001065264455974102,0.0,6821.5,157.0,-582.0,350.0
683,6830.993,1.9249382019042969,-0.2585737705230713,-9.749189376831055,6831.343000000001,-0.0,-0.002130528911948204,0.0,6831.344999999999,157.0,-565.0,356.0
684,6840.629,1.8962076902389526,-0.23942017555236816,-9.84495735168457,6841.308,-0.001065264455974102,-0.003195793367922306,0.0,6841.506,151.0,-582.0,369.0
685,6850.496,1.9345149993896484,-0.2298433631658554,-9.816226959228516,6851.389,-0.001065264455974102,-0.003195793367922306,-0.001065264455974102,6851.387,157.0,-600.0,382.0
686,6860.3589999999995,1.8770540952682495,-0.26815059781074524,-9.797073364257812,6860.912,-0.001065264455974102,-0.002130528911948204,-0.001065264455974102,6861.212,174.0,-576.0,382.0
687,6870.239,1.944091796875,-0.24899697303771973,-9.768342971801758,6871.311000000001,-0.001065264455974102,-0.002130528911948204,-0.001065264455974102,6871.309,157.0,-588.0,376.0
688,6880.324,1.9249382019042969,-0.2298433631658554,-9.825803756713867,6881.334,-0.001065264455974102,-0.002130528911948204,-0.002130528911948204,6881.532,151.0,-553.0,337.0
689,6889.866,1.8770540952682495,-0.26815059781074524,-9.816226959228516,6891.259,-0.001065264455974102,-0.001065264455974102,-0.002130528911948204,6891.457,168.0,-576.0,369.0
690,6899.8679999999995,1.9153614044189453,-0.22026655077934265,-9.806650161743164,6901.243,-0.001065264455974102,-0.001065264455974102,-0.002130528911948204,6901.441,157.0,-588.0,363.0
691,6909.956,1.9249382019042969,-0.24899697303771973,-9.806650161743164,6911.589,-0.001065264455974102,-0.001065264455974102,-0.001065264455974102,6911.303,163.0,-570.0,356.0
692,6921.386,1.886630892753601,-0.2777273952960968,-9.768342971801758,6921.771,-0.001065264455974102,-0.001065264455974102,-0.001065264455974102,6921.686000000001,157.0,-559.0,382.0
693,6931.553,1.9057846069335938,-0.2106897532939911,-9.84495735168457,6931.646,-0.001065264455974102,-0.001065264455974102,-0.001065264455974102,6931.839,163.0,-588.0,350.0
694,6941.5380000000005,1.8962076902389526,-0.22026655077934265,-9.816226959228516,6941.626,-0.001065264455974102,-0.001065264455974102,0.0,6941.8189999999995,151.0,-570.0,369.0
695,6951.514,1.9345149993896484,-0.24899697303771973,-9.835380554199219,6951.692999999999,-0.002130528911948204,-0.001065264455974102,0.0,6951.891,133.0,-576.0,376.0
696,6961.32,1.944091796875,-0.22026655077934265,-9.797073364257812,6961.491,-0.001065264455974102,0.0,0.0,6961.688,151.0,-582.0,356.0
697,6971.203,1.9536685943603516,-0.26815059781074524,-9.816226959228516,6971.374,-0.0,0.0,-0.001065264455974102,6971.5689999999995,157.0,-570.0,369.0
698,6981.103,1.9249382019042969,-0.23942017555236816,-9.806650161743164,6981.362,-0.0,0.0,-0.001065264455974102,6981.56,163.0,-576.0,350.0
699,6990.966,1.9057846069335938,-0.23942017555236816,-9.816226959228516,6991.336,-0.001065264455974102,0.0,-0.001065264455974102,6991.5380000000005,151.0,-600.0,350.0
700,7000.731,1.9057846069335938,-0.2298433631658554,-9.825803756713867,7001.286999999999,-0.001065264455974102,0.0,0.0,7001.684,157.0,-588.0,369.0
701,7010.522,1.9057846069335938,-0.23942017555236816,-9.758766174316406,7011.421,0.001065264455974102,0.0,-0.001065264455974102,7011.419,157.0,-565.0,350.0
702,7020.406,1.9345149993896484,-0.22026655077934265,-9.854534149169922,7020.960999999999,-0.0,-0.001065264455974102,-0.001065264455974102,7021.261,151.0,-576.0,376.0
703,7030.292,1.9153614044189453,-0.26815059781074524,-9.806650161743164,7031.277,-0.0,-0.001065264455974102,0.0,7031.475,151.0,-582.0,382.0
704,7040.35,1.886630892753601,-0.2585737705230713,-9.835380554199219,7041.326,-0.001065264455974102,-0.001065264455974102,-0.001065264455974102,7041.327,151.0,-582.0,343.0
705,7050.233,1.8962076902389526,-0.2585737705230713,-9.84495735168457,7051.319,-0.0,-0.001065264455974102,-0.001065264455974102,7051.517,157.0,-588.0,376.0
706,7060.121999999999,1.8962076902389526,-0.2585737705230713,-9.77791976928711,7061.481,-0.0,-0.001065264455974102,-0.001065264455974102,7061.4800000000005,168.0,-588.0,382.0
707,7069.808,1.9153614044189453,-0.26815059781074524,-9.825803756713867,7071.43,-0.001065264455974102,-0.001065264455974102,-0.001065264455974102,7071.427,157.0,-582.0,369.0
708,7079.866,1.9249382019042969,-0.23942017555236816,-9.835380554199219,7081.549,-0.001065264455974102,-0.001065264455974102,-0.001065264455974102,7081.364,157.0,-576.0,382.0
709,7091.580000000001,1.9153614044189453,-0.2585737705230713,-9.816226959228516,7091.673,-0.001065264455974102,-0.001065264455974102,-0.001065264455974102,7091.665,163.0,-582.0,356.0
710,7101.581999999999,1.9249382019042969,-0.2968810200691223,-9.768342971801758,7101.6810000000005,-0.001065264455974102,-0.001065264455974102,0.0,7101.874,139.0,-570.0,369.0
711,7111.5019999999995,1.9153614044189453,-0.22026655077934265,-9.806650161743164,7111.454,-0.001065264455974102,0.0,0.0,7111.847,157.0,-588.0,369.0
712,7121.367,1.9057846069335938,-0.2585737705230713,-9.787496566772461,7121.338,-0.0,0.0,-0.001065264455974102,7121.93,157.0,-588.0,356.0
713,7131.264,1.9057846069335938,-0.23942017555236816,-9.787496566772461,7131.427000000001,-0.0,-0.001065264455974102,-0.002130528911948204,7131.619,145.0,-588.0,389.0
714,7141.159,1.9249382019042969,-0.22026655077934265,-9.806650161743164,7141.408,-0.0,-0.001065264455974102,-0.001065264455974102,7141.61,168.0,-588.0,389.0
715,7150.983,1.886630892753601,-0.24899697303771973,-9.77791976928711,7151.304,0.001065264455974102,-0.001065264455974102,-0.002130528911948204,7151.5019999999995,151.0,-582.0,356.0
716,7160.754,1.9057846069335938,-0.2298433631658554,-9.835380554199219,7161.3,0.001065264455974102,-0.001065264455974102,-0.001065264455974102,7161.498,157.0,-588.0,369.0
717,7170.573,1.9536685943603516,-0.24899697303771973,-9.797073364257812,7171.459,-0.0,-0.002130528911948204,0.0,7171.457,157.0,-565.0,356.0
