,Acc_ts,Acc_x,Acc_y,Acc_z,Gyro_ts,Gyro_x,Gyro_y,Gyro_z,Mag_ts,Mag_x,Mag_y,Mag_z
0,0.0,1.67578125,-11.09765625,-0.74609375,0.925,0.287109375,-0.490234375,-0.17578125,-14.98,-26.8125,73.625,15.4375
1,5.4879999999999995,1.58203125,-11.3671875,-0.61328125,3.438,0.365234375,-0.66015625,-0.20703125,5.633,-26.8125,73.625,15.4375
2,23.352,1.45703125,-11.484375,-0.0859375,23.361,0.28125,-0.46484375,0.18359375,23.435000000000002,-26.125,75.125,17.8125
3,31.16,1.25390625,-11.078125,-0.11328125,30.892,0.279296875,-0.3984375,0.310546875,30.869,-25.75,75.125,18.625
4,40.739999999999995,1.734375,-10.7265625,-0.32421875,40.686,0.279296875,-0.36328125,0.423828125,40.704,-25.0,75.5,18.625
5,50.85,1.8203125,-10.27734375,-0.3828125,50.855,0.28125,-0.3984375,0.4765625,50.84,-25.0,75.5,18.625
6,63.101000000000006,1.55078125,-9.30859375,-0.05859375,60.733000000000004,0.29296875,-0.416015625,0.44921875,63.17100000000001,-25.0,74.75,17.4375
7,72.995,1.84765625,-9.03515625,-0.1328125,70.777,0.302734375,-0.4453125,0.361328125,72.908,-25.375,76.1875,17.0625
8,82.891,1.9140625,-9.09375,-0.11328125,80.815,0.255859375,-0.451171875,0.25390625,82.803,-24.625,74.75,17.8125
9,92.673,1.83984375,-9.328125,0.23828125,90.732,0.181640625,-0.4375,0.189453125,92.78599999999999,-25.375,75.125,17.8125
10,102.589,1.734375,-9.6640625,0.53515625,100.728,0.0859375,-0.361328125,0.1484375,102.684,-25.375,73.6875,17.8125
11,111.168,1.62890625,-9.85546875,0.8046875,110.87700000000001,0.02734375,-0.228515625,0.171875,111.0,-23.9375,75.8125,17.8125
12,120.82900000000001,1.40625,-10.046875,1.109375,120.762,0.0078125,-0.103515625,0.25,120.891,-24.625,75.125,18.625
13,130.78699999999998,1.25390625,-10.17578125,1.03515625,130.81799999999998,0.068359375,0.02734375,0.359375,130.73000000000002,-25.0,75.125,17.0625
14,140.7,1.00390625,-10.19140625,0.5859375,140.88899999999998,0.109375,0.09765625,0.49609375,140.601,-25.375,76.9375,17.4375
15,150.726,0.96875,-10.015625,-0.125,150.804,0.12890625,0.08984375,0.6015625,150.944,-24.625,75.125,17.4375
16,163.298,0.73828125,-9.7265625,-0.74609375,163.107,0.0625,0.009765625,0.685546875,163.213,-23.9375,75.875,17.0625
17,173.257,0.7265625,-9.4140625,-0.8828125,173.26500000000001,-0.033203125,-0.126953125,0.70703125,173.37199999999999,-23.1875,75.875,18.25
18,183.293,1.03515625,-9.421875,-0.84375,183.302,-0.15625,-0.2265625,0.697265625,183.424,-23.5625,75.125,16.625
19,190.857,1.4375,-9.7734375,-0.7578125,190.804,-0.25,-0.26171875,0.69921875,190.864,-22.8125,76.1875,18.25
20,203.24200000000002,0.74609375,-10.3984375,-0.296875,203.362,-0.341796875,-0.34375,0.765625,203.494,-22.5,76.1875,17.4375
21,213.19,0.41015625,-10.6171875,0.26953125,213.294,-0.31640625,-0.404296875,0.890625,213.35299999999998,-22.8125,76.1875,18.25
22,223.304,0.4296875,-10.53515625,0.48046875,220.899,-0.25,-0.408203125,0.998046875,223.31,-21.75,76.1875,17.0625
23,233.08100000000002,0.6796875,-10.6171875,0.48828125,230.683,-0.19921875,-0.423828125,1.11328125,233.08599999999998,-22.5,76.5625,18.25
24,242.987,0.1640625,-10.6640625,0.125,240.81900000000002,-0.19921875,-0.298828125,1.189453125,242.993,-21.375,76.9375,19.4375
25,252.89099999999996,0.0859375,-10.625,-0.3046875,250.66899999999998,-0.283203125,-0.14453125,1.236328125,252.897,-21.375,75.5,18.625
26,260.778,0.0,-10.68359375,-0.59375,258.197,-0.39453125,-0.017578125,1.240234375,260.854,-20.3125,77.3125,19.0625
27,270.673,-0.3828125,-10.48828125,-0.640625,268.324,-0.546875,0.107421875,1.25,270.786,-19.9375,77.6875,19.0625
28,280.561,0.05859375,-10.51953125,-0.77734375,278.409,-0.662109375,0.24609375,1.2734375,280.66999999999996,-18.875,76.9375,19.0625
29,295.783,0.11328125,-10.6484375,-0.9296875,295.815,-0.705078125,0.271484375,1.2421875,295.834,-17.75,78.0,19.0625
30,308.181,-0.62109375,-10.98828125,-1.015625,305.892,-0.619140625,0.107421875,1.314453125,308.328,-17.375,77.3125,20.25
31,315.72,-1.38671875,-10.96484375,-0.98828125,315.743,-0.5234375,-0.15234375,1.44921875,315.907,-16.6875,78.375,20.625
32,322.188,-1.6484375,-10.98828125,-0.8984375,320.972,-0.4765625,-0.287109375,1.56640625,322.19199999999995,-16.3125,78.0625,20.25
33,330.797,-1.78125,-10.82421875,-0.8515625,330.775,-0.44140625,-0.5,1.7734375,330.861,-16.3125,77.6875,21.0
34,340.84799999999996,-1.30078125,-10.703125,-0.8046875,340.909,-0.458984375,-0.59375,1.939453125,340.858,-14.5,78.0,21.8125
35,353.191,-1.0625,-10.26953125,-0.69921875,353.2,-0.513671875,-0.548828125,1.978515625,353.324,-14.875,78.75,22.25
36,360.987,-1.0234375,-9.98046875,-0.44921875,360.85699999999997,-0.544921875,-0.505859375,1.939453125,360.794,-13.375,77.6875,21.0625
37,373.21,-0.44921875,-9.94921875,0.0078125,373.21500000000003,-0.541015625,-0.42578125,1.78125,373.389,-12.3125,78.375,22.25
38,380.99899999999997,-0.8984375,-9.8515625,0.19140625,380.731,-0.525390625,-0.251953125,1.673828125,380.709,-11.9375,77.6875,23.4375
39,390.829,-1.3515625,-9.90234375,0.25,390.755,-0.48828125,-0.134765625,1.599609375,390.933,-10.5,79.5,22.625
40,407.304,-2.625,-9.921875,0.125,405.963,-0.388671875,0.048828125,1.66796875,407.211,-10.125,78.75,23.0
41,420.782,-2.30859375,-10.05078125,-0.2890625,420.905,-0.240234375,-0.013671875,1.8828125,421.089,-9.4375,78.375,23.8125
42,433.004,-2.27734375,-10.06640625,-0.69921875,430.981,-0.171875,-0.08984375,2.005859375,432.80999999999995,-6.5,79.125,24.625
43,440.78299999999996,-2.8359375,-9.84375,-0.7265625,438.35699999999997,-0.150390625,-0.140625,2.07421875,440.965,-6.875,79.875,24.625
44,450.654,-2.15625,-10.0,-0.66015625,448.405,-0.240234375,-0.1640625,2.14453125,450.76300000000003,-5.75,78.375,23.8125
45,462.508,-3.046875,-10.109375,-0.34375,460.743,-0.478515625,0.169921875,2.177734375,462.617,-4.6875,79.125,23.4375
46,470.54,-3.78125,-10.32421875,-0.21875,468.155,-0.658203125,0.42578125,2.24609375,470.546,-4.3125,78.375,24.1875
47,483.30699999999996,-5.31640625,-10.37109375,-0.31640625,483.217,-0.93359375,0.92578125,2.474609375,483.47,-2.875,77.6875,25.0
48,493.31399999999996,-5.62109375,-10.2734375,-0.53515625,493.43,-0.931640625,0.892578125,2.787109375,493.491,-1.0625,79.125,25.4375
49,508.235,-6.51171875,-9.76171875,-1.16015625,505.70099999999996,-0.767578125,0.80859375,3.197265625,508.293,-0.6875,77.3125,26.625
50,518.1179999999999,-5.79296875,-9.15625,-2.17578125,515.9010000000001,-0.5625,0.53515625,3.501953125,518.018,0.6875,77.3125,27.0
51,525.75,-5.45703125,-8.63671875,-2.40234375,525.759,-0.392578125,-0.078125,3.669921875,525.688,1.0625,78.0625,26.1875
52,530.846,-4.64453125,-8.30859375,-2.5390625,530.7969999999999,-0.322265625,-0.27734375,3.73046875,530.831,2.875,76.5625,27.0
53,543.427,-4.21484375,-7.4453125,-2.76953125,543.2289999999999,-0.26953125,-0.533203125,3.529296875,543.304,4.6875,76.5625,26.625
54,553.304,-3.7265625,-7.0546875,-2.96875,553.425,-0.34765625,-0.74609375,3.259765625,553.616,6.5,75.875,27.4375
55,563.249,-2.98828125,-7.14453125,-3.046875,563.37,-0.515625,-0.890625,3.005859375,563.501,8.3125,74.75,27.375
56,573.3249999999999,-5.0390625,-7.14453125,-3.16015625,573.33,-0.7265625,-0.82421875,2.818359375,573.511,9.4375,75.875,27.8125
57,585.25,-6.80078125,-7.6953125,-3.09375,585.255,-0.978515625,-1.119140625,2.734375,585.167,10.875,74.0625,27.0
58,595.8599999999999,-6.71484375,-8.0625,-2.7578125,595.838,-1.33203125,-1.015625,2.92578125,595.9219999999999,12.6875,74.0625,27.8125
59,602.97,-7.27734375,-7.7109375,-2.48046875,600.865,-1.435546875,-0.91015625,2.984375,602.979,13.0625,72.9375,27.0
60,612.816,-6.46484375,-7.22265625,-2.125,610.836,-1.548828125,-0.978515625,3.1015625,612.822,14.875,71.5,27.8125
61,620.728,-5.87109375,-6.72265625,-1.7421875,618.3539999999999,-1.57421875,-1.064453125,3.10546875,620.737,14.875,71.5,27.8125
62,632.6859999999999,-6.3359375,-6.04296875,-1.24609375,630.878,-1.57421875,-0.91796875,2.99609375,632.599,17.375,71.125,29.375
63,640.479,-6.32421875,-5.78515625,-1.015625,638.287,-1.5625,-0.73828125,2.884765625,640.606,18.875,69.6875,29.8125
64,650.476,-5.8046875,-5.87890625,-0.765625,648.663,-1.5390625,-0.578125,2.673828125,650.479,20.3125,68.625,29.375
65,662.3879999999999,-6.04296875,-6.16015625,-0.74609375,660.902,-1.490234375,-0.353515625,2.501953125,662.3919999999999,21.375,67.5,30.5625
66,673.432,-6.7109375,-6.41796875,-0.74609375,673.2869999999999,-1.447265625,-0.31640625,2.51171875,673.372,23.1875,66.4375,31.0
67,683.372,-6.625,-6.55078125,-0.65234375,683.392,-1.287109375,-0.404296875,2.74609375,683.422,24.3125,65.3125,31.0
68,693.36,-7.046875,-6.234375,-0.70703125,693.181,-1.017578125,-0.560546875,2.927734375,693.254,24.3125,64.625,30.1875
69,700.112,-6.85546875,-5.87890625,-0.65234375,700.0229999999999,-0.849609375,-0.734375,3.01953125,700.029,24.3125,64.625,30.1875
70,710.901,-6.44921875,-5.48828125,-0.57421875,710.813,-0.470703125,-0.970703125,3.185546875,710.911,26.125,62.4375,31.375
71,723.3779999999999,-8.33984375,-4.21484375,-0.59375,723.183,-0.14453125,-0.8671875,3.3125,723.355,26.5,59.875,31.375
72,735.5350000000001,-8.08203125,-2.76953125,-0.59375,733.392,0.072265625,-0.7109375,3.337890625,735.607,27.9375,59.5,31.0
73,745.4920000000001,-6.19140625,-2.3671875,-0.7578125,743.555,0.2734375,-0.6328125,3.216796875,745.4960000000001,30.125,58.4375,29.8125
74,753.312,-5.5546875,-2.2421875,-1.0234375,750.9540000000001,0.416015625,-0.703125,3.009765625,753.384,30.5,58.0625,29.375
75,761.005,-5.68359375,-2.375,-1.28515625,760.792,0.541015625,-0.794921875,2.693359375,760.808,32.3125,56.625,30.625
76,773.095,-7.26953125,-2.6796875,-2.0390625,770.977,0.5078125,-0.724609375,2.4453125,773.207,32.3125,54.0625,30.625
77,783.0160000000001,-7.859375,-3.046875,-2.43359375,780.778,0.3515625,-0.73046875,2.36328125,782.927,33.75,54.4375,29.375
78,792.9359999999999,-9.00390625,-2.94140625,-2.34765625,790.778,0.02734375,-0.7421875,2.45703125,792.849,33.375,54.0625,28.1875
79,800.881,-10.26953125,-2.17578125,-2.0859375,798.8539999999999,-0.251953125,-0.673828125,2.63671875,801.048,34.125,51.875,29.0
80,810.8389999999999,-8.9453125,-1.3984375,-1.1015625,808.508,-0.671875,-0.61328125,2.888671875,810.847,34.125,51.875,29.0
81,820.646,-8.3046875,-0.23828125,-0.48046875,818.428,-0.958984375,-0.40234375,2.951171875,820.649,35.9375,50.0625,28.625
82,831.029,-7.4453125,0.421875,0.078125,830.9459999999999,-1.123046875,-0.18359375,2.84375,831.118,36.625,49.0,28.625
83,840.527,-7.12890625,0.8984375,0.21875,838.241,-1.14453125,-0.0625,2.638671875,840.5319999999999,36.625,49.0,28.625
84,852.2610000000001,-6.87890625,0.9375,0.34375,850.865,-0.984375,-0.060546875,2.28125,852.267,37.75,46.8125,29.8125
85,860.844,-7.01171875,0.7578125,0.3359375,860.923,-0.765625,-0.048828125,1.966796875,860.804,38.4375,45.375,29.8125
86,870.19,-8.1171875,0.69921875,0.32421875,868.3760000000001,-0.580078125,-0.0703125,1.759765625,870.0989999999999,37.75,43.9375,29.0
87,885.938,-8.75,0.671875,0.4296875,885.8430000000001,-0.134765625,-0.119140625,1.572265625,886.1419999999999,37.75,42.4375,29.8125
88,895.8230000000001,-8.44921875,1.04296875,0.01953125,893.43,0.02734375,-0.099609375,1.544921875,895.768,38.8125,42.8125,29.4375
89,903.5300000000001,-8.72265625,1.2734375,0.09765625,903.489,0.1796875,-0.01953125,1.390625,903.419,38.4375,42.0625,28.625
90,913.3599999999999,-8.73828125,1.58984375,-0.06640625,913.28,0.349609375,0.06640625,1.259765625,913.453,39.1875,41.0,28.625
91,923.453,-8.3125,1.58984375,-0.26953125,923.378,0.53515625,0.083984375,1.0859375,923.4350000000001,39.5625,39.9375,28.625
92,933.311,-8.51953125,1.3984375,-0.70703125,930.961,0.6640625,0.083984375,0.953125,933.316,40.25,40.25,28.625
93,940.774,-8.90234375,1.3515625,-0.78515625,940.78,0.75,0.09375,0.84375,940.962,40.25,40.25,28.625
94,953.1610000000001,-9.2109375,0.99609375,-1.50390625,950.834,0.728515625,0.146484375,0.802734375,952.967,39.1875,38.8125,29.0
95,963.0260000000001,-9.2265625,0.6328125,-2.14453125,961.015,0.630859375,0.240234375,0.78515625,963.034,39.5625,38.4375,29.0
96,972.816,-9.13671875,0.23046875,-2.44140625,970.789,0.513671875,0.2265625,0.767578125,972.825,38.8125,39.5625,29.4375
97,980.905,-9.77734375,0.25,-2.5390625,978.386,0.400390625,0.166015625,0.80859375,981.015,40.25,39.5625,29.0
98,990.84,-10.4765625,0.640625,-2.48046875,988.4920000000001,0.26953125,0.09375,0.974609375,990.848,40.25,39.5625,29.0
99,1002.553,-9.66796875,1.33984375,-2.27734375,1000.9110000000001,0.123046875,0.037109375,1.1875,1002.456,39.1875,38.4375,29.8125
100,1012.326,-9.0,1.93359375,-2.05859375,1010.9090000000001,0.068359375,-0.033203125,1.185546875,1012.3310000000001,39.9375,37.75,29.8125
101,1020.9079999999999,-9.05078125,2.35546875,-2.01171875,1020.8410000000001,0.0625,-0.142578125,1.125,1020.8520000000001,39.1875,37.0,29.0
102,1036.168,-8.55078125,2.5859375,-1.953125,1036.009,0.03125,-0.275390625,0.955078125,1036.0430000000001,41.375,37.0,29.8125
103,1048.0819999999999,-8.31640625,2.078125,-1.6484375,1045.8639999999998,0.02734375,-0.31640625,0.77734375,1048.0910000000001,41.0,35.9375,29.0
104,1055.957,-8.8203125,1.7890625,-1.55078125,1056.0179999999998,0.037109375,-0.337890625,0.673828125,1056.297,39.1875,35.1875,28.625
105,1061.27,-9.5390625,1.62890625,-1.38671875,1060.934,0.0390625,-0.36328125,0.69921875,1060.902,40.625,35.5625,28.625
106,1073.506,-10.328125,1.4375,-1.015625,1073.443,0.083984375,-0.388671875,0.904296875,1073.412,39.5625,34.4375,27.4375
107,1083.4569999999999,-10.40234375,1.734375,-0.765625,1083.461,0.146484375,-0.412109375,1.130859375,1083.434,39.9375,34.4375,27.8125
108,1093.337,-9.58203125,2.203125,-0.71875,1093.34,0.21484375,-0.380859375,1.259765625,1093.512,41.0,33.375,28.25
109,1103.288,-8.9921875,2.57421875,-0.7578125,1103.413,0.2421875,-0.40625,1.302734375,1103.47,40.625,34.8125,28.25
110,1113.3980000000001,-8.91796875,2.77734375,-0.84375,1110.838,0.2421875,-0.37109375,1.28515625,1113.2040000000002,41.0,34.125,28.25
111,1121.009,-8.7109375,2.625,-0.9296875,1121.014,0.18359375,-0.30859375,1.275390625,1120.996,41.0,34.125,28.25
112,1133.1100000000001,-9.4375,2.26953125,-1.12109375,1130.9279999999999,0.119140625,-0.25390625,1.294921875,1133.079,41.375,32.625,28.625
113,1143.1119999999999,-10.1328125,2.26953125,-1.29296875,1140.923,0.087890625,-0.28515625,1.431640625,1143.2199999999998,41.375,31.9375,26.25
114,1153.0430000000001,-9.796875,2.39453125,-1.37890625,1151.0240000000001,0.078125,-0.345703125,1.646484375,1152.952,40.25,30.8125,27.8125
115,1162.8149999999998,-9.4765625,2.73046875,-1.33984375,1160.818,0.09765625,-0.40234375,1.8125,1162.923,41.375,29.75,28.25
116,1172.764,-8.84375,2.75,-1.265625,1170.953,0.197265625,-0.54296875,1.900390625,1172.856,41.75,29.375,26.625
117,1180.5810000000001,-9.0078125,2.6796875,-1.28515625,1178.494,0.306640625,-0.724609375,1.9453125,1180.586,41.75,29.375,26.625
118,1190.66,-9.90625,3.0546875,-1.2265625,1188.3619999999999,0.36328125,-0.943359375,2.0859375,1190.4660000000001,41.75,29.375,26.625
119,1200.983,-9.89453125,3.53515625,-1.1796875,1200.998,0.298828125,-1.0390625,2.439453125,1200.911,41.375,27.1875,25.4375
120,1213.51,-8.56640625,4.0625,-1.140625,1213.313,0.080078125,-1.05859375,2.66015625,1213.5430000000001,41.75,25.375,25.8125
121,1223.658,-7.390625,4.03125,-0.8515625,1223.5069999999998,-0.107421875,-1.06640625,2.671875,1223.598,42.4375,24.6875,25.0625
122,1233.424,-6.7421875,3.58203125,-0.6796875,1233.457,-0.234375,-1.08984375,2.60546875,1233.4750000000001,41.75,24.3125,25.4375
123,1243.538,-7.3984375,2.9609375,0.171875,1243.351,-0.263671875,-1.01171875,2.517578125,1243.436,41.375,21.0625,24.25
124,1253.358,-7.4296875,2.203125,0.5546875,1253.3790000000001,-0.10546875,-1.03515625,2.7421875,1253.5240000000001,41.0,20.3125,24.25
125,1265.546,-9.296875,2.9609375,1.04296875,1263.4,0.150390625,-1.00390625,3.15625,1265.618,42.125,18.875,23.0625
126,1275.549,-9.6484375,4.6171875,0.70703125,1273.585,0.427734375,-1.115234375,3.697265625,1275.461,40.625,18.125,22.25
127,1289.508,-7.85546875,6.26171875,0.2890625,1289.411,0.578125,-1.265625,4.365234375,1289.4170000000001,40.625,16.3125,22.25
128,1295.98,-6.64453125,6.55859375,0.23828125,1296.328,0.560546875,-1.234375,4.51171875,1296.097,40.625,13.75,21.4375
129,1303.397,-5.0078125,6.89453125,-0.046875,1300.891,0.498046875,-1.205078125,4.525390625,1303.403,41.0,11.9375,19.5
130,1313.232,-3.88671875,7.296875,-0.23046875,1310.885,0.3203125,-1.0234375,4.341796875,1313.24,39.9375,10.5,20.6875
131,1328.977,-0.96875,6.7578125,0.01953125,1328.398,-0.07421875,-0.666015625,3.515625,1328.983,39.9375,8.6875,19.875
132,1340.782,-2.5078125,6.5,0.41015625,1338.517,-0.23046875,-0.3515625,2.99609375,1340.854,38.8125,7.9375,19.4375
133,1352.756,-4.69140625,6.27734375,0.86328125,1350.898,-0.1953125,-0.228515625,2.798828125,1352.759,37.0,4.6875,19.875
134,1362.641,-5.79296875,6.42578125,1.1484375,1360.999,0.0,-0.201171875,2.923828125,1362.644,35.1875,2.875,19.5
135,1370.959,-6.2421875,7.171875,0.91796875,1370.98,0.2734375,-0.203125,3.22265625,1370.792,35.9375,2.5,19.0625
136,1380.96,-5.19140625,7.95703125,0.5859375,1380.993,0.51171875,-0.443359375,3.552734375,1380.904,34.5,0.6875,20.25
137,1393.359,-3.015625,8.4921875,0.1640625,1393.379,0.6640625,-0.59765625,3.619140625,1393.665,33.375,-1.0625,20.6875
138,1403.5249999999999,-1.24609375,8.30859375,0.3046875,1403.545,0.630859375,-0.60546875,3.41015625,1403.8310000000001,32.625,-0.6875,19.5
139,1413.422,-0.26953125,7.90625,0.4609375,1413.442,0.4921875,-0.369140625,3.060546875,1413.535,31.5625,-2.875,19.875
140,1425.8919999999998,-1.28515625,7.65625,0.70703125,1423.493,0.3515625,0.03515625,2.80078125,1425.826,31.1875,-4.6875,19.0625
141,1439.9850000000001,-2.01171875,7.13671875,0.82421875,1439.714,0.29296875,0.4609375,2.705078125,1439.722,29.375,-4.6875,19.875
142,1453.4009999999998,-1.4765625,6.703125,0.8046875,1453.406,0.6328125,0.57421875,2.771484375,1453.626,26.5,-6.875,20.6875
143,1461.129,-1.45703125,6.734375,0.61328125,1461.057,0.880859375,0.54296875,2.822265625,1461.073,25.375,-6.875,19.875
144,1470.9470000000001,-2.69140625,7.5703125,0.02734375,1470.754,1.193359375,0.498046875,3.1015625,1470.8600000000001,25.375,-6.875,19.875
145,1483.308,-2.296875,9.4765625,-1.00390625,1480.9779999999998,1.33984375,0.130859375,3.474609375,1483.313,24.3125,-9.4375,22.625
146,1500.817,0.48828125,10.9765625,-1.8671875,1500.826,1.0,-0.123046875,3.41796875,1501.0079999999998,22.125,-10.5,23.4375
147,1510.9969999999998,2.26171875,11.25390625,-1.7734375,1509.128,0.7421875,-0.115234375,3.125,1511.136,19.9375,-12.6875,22.625
148,1523.5320000000002,3.3125,10.81640625,-1.20703125,1523.519,0.146484375,0.068359375,2.21484375,1523.462,19.1875,-11.9375,22.625
149,1530.8390000000002,2.890625,10.13671875,-0.74609375,1528.541,-0.0078125,0.205078125,1.94140625,1530.644,19.1875,-11.9375,22.625
150,1542.7169999999999,0.3828125,9.125,0.15234375,1541.025,-0.17578125,0.51171875,1.462890625,1542.6290000000001,17.375,-14.125,23.4375
151,1550.8500000000001,-1.62890625,9.2421875,0.296875,1550.9660000000001,-0.021484375,0.662109375,1.578125,1550.777,15.5625,-13.375,23.875
152,1562.5249999999999,-1.58203125,9.9375,-0.3828125,1560.929,0.2890625,0.501953125,1.9375,1562.332,15.25,-14.125,23.875
153,1573.523,0.84375,10.55859375,-0.8984375,1573.3429999999998,0.564453125,0.23828125,2.080078125,1573.7810000000002,14.5,-15.25,23.875
154,1583.475,2.77734375,10.86328125,-1.41796875,1583.3980000000001,0.57421875,0.15625,1.798828125,1583.472,13.0625,-14.875,25.0625
155,1593.6390000000001,3.06640625,10.875,-1.66796875,1593.443,0.462890625,0.146484375,1.341796875,1593.5529999999999,12.6875,-15.5625,24.625
156,1601.317,2.01953125,10.796875,-1.71484375,1601.075,0.36328125,0.1640625,1.087890625,1601.1219999999998,12.6875,-14.125,25.4375
157,1615.642,0.9375,10.3828125,-1.1953125,1613.437,0.220703125,-0.04296875,0.943359375,1615.6470000000002,10.875,-14.875,25.8125
158,1623.409,1.109375,10.17578125,-1.0234375,1623.375,0.111328125,-0.080078125,0.947265625,1623.396,10.875,-15.5625,25.4375
159,1633.497,1.37890625,9.90234375,-0.8125,1633.4560000000001,0.0,-0.08203125,0.912109375,1633.581,10.125,-14.125,24.625
160,1643.496,0.99609375,9.94140625,-0.74609375,1641.0720000000001,-0.078125,-0.015625,0.91796875,1643.661,10.125,-15.5625,25.8125
161,1653.4260000000002,0.71875,10.41015625,-0.7578125,1651.009,-0.201171875,0.095703125,0.982421875,1653.434,9.75,-15.9375,25.4375
162,1663.279,1.25390625,11.13671875,-0.91015625,1660.9460000000001,-0.318359375,0.220703125,1.072265625,1663.287,8.3125,-16.3125,25.4375
163,1673.22,2.5,11.5859375,-0.94921875,1670.97,-0.388671875,0.23828125,1.037109375,1673.288,8.6875,-16.6875,25.8125
164,1683.023,3.5703125,11.5390625,-0.83203125,1680.989,-0.4296875,0.15234375,0.814453125,1683.031,8.3125,-15.5625,25.4375
165,1690.9479999999999,3.95703125,11.2578125,-0.546875,1688.574,-0.41796875,0.12890625,0.5234375,1690.874,7.25,-16.3125,25.0625
166,1700.8600000000001,3.0078125,10.83984375,-0.11328125,1698.4550000000002,-0.30078125,0.185546875,0.158203125,1700.752,8.3125,-15.9375,24.625
167,1710.7250000000001,2.05859375,10.27734375,0.3828125,1708.5829999999999,-0.06640625,0.15234375,-0.04296875,1710.728,6.875,-15.9375,24.625
168,1720.57,1.45703125,10.0,0.375,1718.5159999999998,0.21484375,0.146484375,-0.078125,1720.577,7.9375,-16.6875,25.4375
169,1732.4470000000001,1.42578125,10.0234375,-0.14453125,1731.067,0.53125,0.126953125,0.01953125,1732.453,7.9375,-15.5625,25.0625
170,1742.366,1.80078125,10.38671875,-0.7578125,1740.9669999999999,0.658203125,0.04296875,0.064453125,1742.373,6.875,-16.3125,25.8125
171,1751.043,1.9453125,10.65234375,-1.2734375,1751.018,0.587890625,-0.01171875,0.044921875,1751.1019999999999,6.5,-16.6875,25.4375
172,1760.147,2.55859375,10.62890625,-1.703125,1758.667,0.40625,-0.04296875,-0.015625,1760.156,6.875,-17.0625,25.0625
173,1770.935,2.3359375,10.51953125,-1.76171875,1771.0539999999999,-0.029296875,0.181640625,-0.19140625,1770.944,7.625,-16.6875,26.625
174,1781.037,1.9140625,10.35546875,-1.58984375,1781.036,-0.34375,0.37109375,-0.283203125,1781.047,7.625,-16.3125,25.4375
175,1790.138,1.8671875,10.00390625,-1.08984375,1790.248,-0.501953125,0.4140625,-0.326171875,1790.257,7.625,-16.3125,25.4375
176,1803.531,1.5625,9.68359375,-0.7578125,1803.6380000000001,-0.484375,0.30078125,-0.330078125,1803.807,8.3125,-15.5625,25.4375
177,1813.5349999999999,1.16015625,9.69140625,-0.5859375,1813.397,-0.35546875,0.22265625,-0.26953125,1813.542,7.25,-15.9375,24.6875
178,1823.4889999999998,1.4765625,9.734375,-0.5078125,1821.1200000000001,-0.248046875,0.21875,-0.240234375,1823.4950000000001,8.3125,-15.25,26.25
179,1833.5030000000002,1.72265625,9.8515625,-0.69921875,1830.915,-0.052734375,0.208984375,-0.251953125,1833.308,7.9375,-16.3125,24.625
180,1843.317,1.7734375,9.92578125,-0.83203125,1841.069,0.1171875,0.140625,-0.333984375,1843.385,8.3125,-17.0625,25.4375
181,1853.1660000000002,1.83984375,9.87890625,-1.04296875,1850.959,0.25390625,0.03125,-0.43359375,1853.106,8.3125,-15.5625,25.8125
182,1863.06,1.89453125,9.44140625,-1.16015625,1861.02,0.32421875,-0.05078125,-0.54296875,1862.969,7.9375,-16.3125,25.4375
183,1872.9309999999998,1.7421875,8.859375,-1.109375,1871.155,0.296875,-0.12890625,-0.63671875,1873.04,8.3125,-15.5625,25.875
184,1882.869,0.8125,8.45703125,-0.86328125,1881.078,0.23828125,-0.158203125,-0.6015625,1882.762,9.75,-16.6875,25.875
185,1892.6380000000001,0.078125,8.390625,-0.7578125,1891.269,0.166015625,-0.140625,-0.4453125,1892.644,9.4375,-16.6875,25.0625
186,1900.965,-0.06640625,8.74609375,-0.765625,1900.986,0.08984375,-0.107421875,-0.158203125,1900.912,9.75,-15.25,25.4375
187,1910.966,0.21875,9.58203125,-0.8125,1911.0,-0.041015625,-0.103515625,0.078125,1911.017,9.4375,-16.3125,25.875
188,1920.401,1.16796875,10.40234375,-0.91015625,1918.565,-0.158203125,-0.080078125,0.173828125,1920.409,9.4375,-15.5625,25.875
189,1932.28,2.31640625,11.1484375,-0.8828125,1931.0069999999998,-0.31640625,-0.00390625,0.068359375,1932.29,9.4375,-14.875,25.4375
190,1941.314,2.94140625,11.17578125,-0.78515625,1941.017,-0.3984375,0.00390625,-0.24609375,1941.008,10.5,-17.0625,26.25
191,1953.545,2.35546875,11.00390625,-0.3828125,1953.49,-0.36328125,0.00390625,-0.625,1953.51,10.875,-15.9375,25.0625
192,1963.596,1.5234375,10.7265625,0.09765625,1963.617,-0.2421875,0.02734375,-0.794921875,1963.587,9.75,-15.9375,24.625
193,1973.429,0.9296875,10.70703125,0.23828125,1973.454,-0.091796875,0.080078125,-0.830078125,1973.466,9.75,-15.9375,24.25
194,1983.537,0.91796875,10.90625,0.18359375,1983.497,0.068359375,0.125,-0.86328125,1983.6229999999998,11.25,-14.875,24.6875
195,1993.531,1.484375,11.12109375,-0.06640625,1993.535,0.19921875,0.162109375,-0.94140625,1993.7160000000001,10.875,-15.5625,24.6875
196,2003.5810000000001,1.828125,11.296875,-0.375,2000.9929999999997,0.279296875,0.166015625,-1.091796875,2003.387,11.25,-15.5625,24.625
197,2013.3290000000002,1.9453125,11.171875,-0.57421875,2010.92,0.33203125,0.189453125,-1.34375,2013.334,10.875,-16.6875,25.0625
198,2023.3029999999999,1.5703125,10.94140625,-0.59375,2021.1229999999998,0.3828125,0.2109375,-1.625,2023.3750000000002,12.6875,-13.75,25.4375
199,2033.184,0.98828125,10.66796875,-0.53515625,2030.949,0.4609375,0.212890625,-1.84375,2033.2089999999998,13.75,-14.5,25.4375
200,2043.063,0.91015625,10.18359375,-0.5859375,2040.9709999999998,0.55078125,0.19921875,-1.984375,2043.088,13.0625,-13.75,26.625
201,2052.899,-0.046875,10.3125,-0.74609375,2051.189,0.634765625,0.263671875,-2.10546875,2053.011,14.875,-13.0625,26.25
202,2061.0170000000003,0.09765625,10.09375,-1.0234375,2060.922,0.658203125,0.3125,-2.16796875,2060.934,15.5625,-13.4375,26.625
203,2070.771,0.078125,10.14453125,-1.5234375,2068.473,0.6640625,0.26171875,-2.2109375,2070.578,16.3125,-13.4375,26.625
204,2080.589,1.00390625,9.5390625,-1.6171875,2078.52,0.623046875,0.123046875,-2.349609375,2080.596,17.75,-12.3125,27.4375
205,2092.451,0.32421875,9.078125,-1.234375,2091.034,0.59375,-0.001953125,-2.60546875,2092.458,18.125,-13.0625,26.625
206,2105.989,-1.4765625,9.28515625,-0.8984375,2106.109,0.6171875,-0.04296875,-2.677734375,2106.298,19.1875,-9.75,28.25
207,2116.105,-2.18359375,9.8125,-1.1015625,2116.061,0.65234375,-0.099609375,-2.56640625,2116.034,20.6875,-9.75,27.8125
208,2128.199,-1.08984375,10.09375,-1.703125,2125.966,0.671875,-0.283203125,-2.5546875,2128.208,21.375,-10.125,28.625
209,2135.9849999999997,-0.2578125,9.71484375,-1.88671875,2133.536,0.609375,-0.37109375,-2.67578125,2135.991,22.5,-8.6875,28.625
210,2143.525,0.14453125,9.2890625,-1.8203125,2143.602,0.3828125,-0.33203125,-2.9375,2143.636,23.5625,-8.3125,27.0625
211,2153.5229999999997,-0.06640625,8.359375,-1.5234375,2153.646,0.115234375,-0.13671875,-3.208984375,2153.813,25.0,-6.875,29.0625
212,2163.454,-0.91796875,7.33203125,-0.91015625,2163.578,-0.048828125,0.01171875,-3.34765625,2163.636,25.75,-6.5,27.8125
213,2175.5330000000004,-3.58203125,7.13671875,-0.53515625,2173.5829999999996,-0.052734375,0.162109375,-3.30078125,2175.601,26.125,-4.6875,26.625
214,2189.301,-4.93359375,8.07421875,-0.69140625,2189.678,0.060546875,0.28125,-2.83203125,2189.388,28.6875,-4.3125,27.8125
215,2203.293,-3.33203125,9.19921875,-1.37890625,2201.061,0.2734375,0.08203125,-2.5078125,2203.3019999999997,29.375,-1.8125,27.8125
216,2213.031,-0.671875,8.8671875,-2.01171875,2211.119,0.37890625,-0.248046875,-2.6171875,2213.139,30.8125,-1.0625,29.0625
217,2222.907,-0.296875,7.984375,-1.734375,2221.034,0.3203125,-0.275390625,-3.0859375,2223.02,31.5625,0.0,29.0625
218,2230.9809999999998,-1.75390625,7.29296875,-1.24609375,2228.528,0.224609375,-0.033203125,-3.447265625,2230.88,32.6875,1.0625,28.25
219,2240.809,-4.40625,7.08203125,-0.77734375,2238.61,0.181640625,0.283203125,-3.671875,2240.7200000000003,33.75,2.125,28.25
220,2256.047,-6.0625,7.3046875,-0.74609375,2255.874,0.474609375,0.16796875,-3.337890625,2255.9680000000003,34.125,3.25,29.0625
221,2268.713,-4.1953125,7.546875,-1.33203125,2266.133,0.69921875,-0.064453125,-3.205078125,2268.643,34.5,5.4375,28.625
222,2280.339,-1.8671875,6.76953125,-2.01953125,2280.248,0.890625,-0.412109375,-3.369140625,2280.256,34.8125,6.5,29.4375
223,2293.5310000000004,-1.30078125,4.796875,-1.7421875,2293.556,0.857421875,-0.8671875,-3.966796875,2293.626,36.625,9.4375,28.625
224,2303.5190000000002,-3.73828125,3.32421875,-1.12890625,2303.5480000000002,0.65234375,-0.63671875,-4.123046875,2303.5640000000003,38.125,12.3125,29.4375
225,2313.564,-6.96484375,2.4609375,-0.77734375,2313.688,0.443359375,-0.220703125,-3.9453125,2313.7599999999998,38.8125,12.3125,28.25
226,2323.5,-9.58203125,2.19140625,-0.71875,2323.505,0.322265625,0.15234375,-3.37890625,2323.611,39.9375,14.5,28.625
227,2335.8669999999997,-11.3203125,2.77734375,-0.95703125,2333.521,0.3203125,0.33203125,-2.56640625,2335.734,39.5625,17.375,29.0625
228,2347.696,-11.01171875,4.2890625,-1.84765625,2346.326,0.421875,0.263671875,-1.544921875,2347.845,39.9375,17.375,27.875
229,2361.051,-8.66796875,5.73828125,-2.890625,2360.988,0.412109375,-0.033203125,-0.927734375,2361.013,40.3125,20.3125,28.625
230,2373.3379999999997,-5.3359375,6.14453125,-3.53515625,2371.146,0.189453125,-0.12109375,-1.11328125,2373.246,41.375,20.3125,29.4375
231,2383.302,-5.36328125,5.66015625,-3.1015625,2380.887,-0.126953125,-0.048828125,-1.552734375,2383.1099999999997,41.0,21.375,29.4375
232,2393.208,-7.421875,5.1328125,-2.19140625,2391.01,-0.37890625,0.048828125,-1.890625,2393.014,41.0,21.0625,29.8125
233,2400.937,-8.77734375,4.72265625,-1.51171875,2398.549,-0.44921875,0.060546875,-1.91796875,2400.9429999999998,41.0,21.0625,29.8125
234,2412.81,-9.2890625,4.18359375,-0.78515625,2411.1189999999997,-0.35546875,0.064453125,-1.755859375,2412.921,39.9375,23.5625,29.4375
235,2421.111,-9.8359375,4.234375,-0.74609375,2421.1330000000003,-0.1484375,0.09765625,-1.53515625,2421.202,41.0,23.9375,28.625
236,2430.557,-9.89453125,4.7109375,-0.91796875,2428.543,0.029296875,0.068359375,-1.33203125,2430.636,41.75,23.9375,28.25
237,2445.9460000000004,-8.97265625,5.7265625,-2.0859375,2445.967,0.255859375,-0.126953125,-1.072265625,2446.0389999999998,40.625,24.3125,29.4375
238,2458.531,-7.2734375,5.984375,-2.9609375,2456.085,0.1484375,-0.15625,-1.17578125,2458.475,40.625,26.5,30.25
239,2481.4440000000004,-6.1875,4.203125,-2.4140625,2481.202,-0.482421875,0.009765625,-1.9609375,2481.2470000000003,30.875,-1.0,6.8125
240,2490.165,-7.14453125,3.16015625,-1.5234375,2488.448,-0.54296875,0.083984375,-2.125,2490.0699999999997,30.875,-1.0,6.8125
241,2501.133,-8.18359375,2.375,-0.77734375,2501.09,-0.412109375,0.197265625,-2.203125,2501.1389999999997,30.375,-0.0625,7.4375
242,2513.458,-9.1953125,2.15625,-0.640625,2513.583,-0.01953125,0.216796875,-1.986328125,2513.639,30.4375,1.3125,7.3125
243,2521.126,-9.55859375,2.296875,-0.7578125,2521.1,0.2578125,0.189453125,-1.8359375,2521.133,30.5625,1.0625,8.6875
244,2531.266,-9.35546875,2.77734375,-1.2265625,2531.104,0.580078125,0.115234375,-1.646484375,2531.151,30.125,1.75,8.0625
245,2543.3650000000002,-8.66796875,3.92578125,-2.44140625,2541.009,0.830078125,-0.064453125,-1.568359375,2543.4739999999997,30.875,2.6875,8.5
246,2553.315,-7.53125,4.65625,-3.08203125,2551.146,1.01171875,-0.41796875,-1.638671875,2553.384,30.125,2.875,8.5625
247,2561.11,-6.25,4.56640625,-3.41796875,2561.118,1.130859375,-0.8828125,-1.91796875,2561.314,30.125,2.875,8.5625
248,2580.946,-5.05078125,2.1171875,-2.98828125,2578.557,0.953125,-1.193359375,-2.966796875,2581.018,31.125,4.875,6.3125
249,2590.986,-6.25390625,0.59375,-2.39453125,2590.992,0.69140625,-1.173828125,-3.4453125,2591.003,30.0625,6.375,4.25
250,2612.5609999999997,-10.12109375,-1.38671875,-1.12109375,2611.2929999999997,0.23046875,-1.126953125,-3.134765625,2612.6730000000002,30.25,8.0625,2.8125
251,2620.625,-10.87109375,-1.58203125,-0.8515625,2618.673,0.04296875,-0.939453125,-2.806640625,2620.631,30.3125,9.1875,1.9375
252,2636.151,-11.70703125,-1.5703125,-0.515625,2635.9590000000003,-0.30078125,-0.501953125,-1.96875,2636.129,29.625,10.8125,-0.1875
253,2648.444,-10.96484375,-1.4765625,-0.26953125,2646.1130000000003,-0.3828125,-0.29296875,-1.58984375,2648.249,30.625,10.6875,-2.375
254,2658.153,-10.578125,-1.3515625,-0.1328125,2655.976,-0.33984375,-0.09765625,-1.359375,2658.158,29.375,11.6875,-0.1875
255,2663.6389999999997,-10.4921875,-1.2265625,-0.19921875,2663.4739999999997,-0.306640625,0.00390625,-1.234375,2663.514,29.6875,11.125,-1.625
256,2681.175,-10.234375,-0.9765625,-0.5859375,2681.139,-0.126953125,0.10546875,-0.994140625,2681.181,29.0625,12.875,-1.6875
257,2695.806,-9.80078125,-0.890625,-0.95703125,2693.5609999999997,-0.05859375,-0.013671875,-0.8125,2695.812,29.5,12.4375,-1.6875
258,2711.072,-9.33984375,-1.25390625,-1.08984375,2711.078,-0.140625,-0.037109375,-0.73828125,2711.186,28.5,12.8125,-0.8125
259,2723.3900000000003,-9.7890625,-1.5234375,-0.91015625,2721.041,-0.244140625,0.01171875,-0.724609375,2723.398,28.6875,12.875,-3.0
260,2731.371,-10.2421875,-1.51171875,-0.78515625,2731.0690000000004,-0.3046875,0.064453125,-0.65234375,2731.078,28.4375,13.75,-2.3125
261,2741.249,-10.76953125,-1.359375,-0.7265625,2741.104,-0.275390625,0.048828125,-0.447265625,2741.425,28.4375,13.75,-2.3125
262,2753.093,-10.44921875,-0.91796875,-0.671875,2751.044,-0.212890625,-0.00390625,-0.20703125,2753.004,28.5625,13.9375,-0.9375
263,2762.9190000000003,-9.578125,-0.70703125,-0.8046875,2761.171,-0.1640625,-0.046875,-0.08984375,2763.032,28.1875,13.75,-1.625
264,2770.8979999999997,-9.54296875,-0.4296875,-0.8828125,2768.598,-0.1484375,-0.03515625,-0.091796875,2770.774,28.5,13.6875,0.375
265,2780.92,-9.7265625,-0.15234375,-0.96875,2778.67,-0.181640625,-0.0078125,-0.138671875,2780.926,28.3125,13.625,0.4375
266,2790.854,-9.38671875,-0.19140625,-1.109375,2788.5080000000003,-0.181640625,-0.03515625,-0.205078125,2790.8599999999997,29.75,13.3125,-1.0625
267,2801.138,-9.12109375,-0.40234375,-1.0234375,2801.071,-0.146484375,-0.1328125,-0.322265625,2801.08,28.625,14.1875,-1.0
268,2811.201,-9.38671875,-0.6015625,-0.8125,2811.39,-0.09375,-0.181640625,-0.388671875,2811.1169999999997,29.125,13.4375,1.6875
269,2833.6420000000003,-10.1484375,-0.69140625,-0.62109375,2833.566,0.064453125,-0.21875,-0.302734375,2833.654,28.0,14.0625,1.8125
270,2843.648,-10.13671875,-0.1640625,-0.7578125,2843.6530000000002,0.185546875,-0.259765625,-0.173828125,2843.759,28.5625,14.125,0.3125
271,2865.847,-8.69921875,0.640625,-1.109375,2863.625,0.35546875,-0.470703125,-0.28125,2865.852,28.625,13.75,-1.6875
272,2871.172,-8.6953125,0.74609375,-1.0234375,2871.2219999999998,0.390625,-0.453125,-0.45703125,2871.091,29.0,14.625,0.1875
273,2881.042,-8.703125,0.91015625,-1.16015625,2881.007,0.43359375,-0.556640625,-0.689453125,2881.144,28.75,14.6875,-2.4375
274,2893.499,-8.06640625,0.4296875,-1.1953125,2891.154,0.466796875,-0.63671875,-0.974609375,2893.567,29.75,14.8125,-4.0
275,2903.739,-8.1796875,-0.15234375,-1.0546875,2903.648,0.466796875,-0.6875,-1.2890625,2903.493,28.5625,15.25,-6.5
276,2911.316,-8.4140625,-0.40234375,-0.9765625,2911.074,0.455078125,-0.69140625,-1.41796875,2911.028,29.0625,15.625,-3.3125
277,2923.2529999999997,-9.26171875,-0.84375,-0.8046875,2921.062,0.44140625,-0.67578125,-1.50390625,2923.0589999999997,28.3125,15.9375,-5.875
278,2933.033,-9.30078125,-0.87109375,-0.73828125,2931.245,0.44921875,-0.748046875,-1.521484375,2933.144,28.9375,15.9375,-5.375
279,2952.828,-8.0546875,-1.0546875,-0.39453125,2951.1259999999997,0.521484375,-0.9765625,-1.580078125,2952.7389999999996,28.0,17.5625,-8.0625
280,2961.153,-7.66015625,-1.109375,-0.06640625,2961.083,0.533203125,-1.0703125,-1.697265625,2961.1519999999996,28.1875,17.75,-7.4375
281,2971.074,-7.18359375,-1.12109375,0.35546875,2971.1059999999998,0.494140625,-1.052734375,-1.935546875,2971.2740000000003,28.75,17.8125,-8.1875
282,2983.634,-7.06640625,-1.3125,0.6015625,2983.5389999999998,0.4140625,-0.966796875,-2.283203125,2983.6200000000003,27.8125,19.125,-7.5
283,3008.322,-7.38671875,-2.2421875,0.61328125,3006.152,0.193359375,-0.564453125,-2.943359375,3008.406,27.0625,20.125,-12.9375
284,3023.731,-7.84375,-2.59375,0.15234375,3023.536,0.166015625,-0.505859375,-3.22265625,3023.7180000000003,25.9375,21.4375,-12.875
285,3033.945,-7.640625,-2.61328125,-0.19921875,3033.823,0.162109375,-0.6953125,-3.322265625,3033.705,26.0625,22.625,-14.3125
286,3043.6369999999997,-7.0546875,-2.85546875,0.02734375,3043.561,0.111328125,-0.748046875,-3.5703125,3043.728,25.6875,23.125,-15.0625
287,3063.652,-5.21875,-4.55859375,0.5078125,3061.2560000000003,-0.1484375,-0.494140625,-4.28125,3063.5849999999996,23.0,25.125,-12.0
288,3077.481,-4.69140625,-5.93359375,0.61328125,3076.227,-0.42578125,-0.25,-4.724609375,3077.562,22.375,25.5,-16.125
289,3091.205,-4.96875,-6.921875,0.640625,3091.2090000000003,-0.740234375,0.04296875,-4.865234375,3091.3909999999996,21.0625,26.4375,-12.5625
290,3103.194,-5.23828125,-7.84765625,0.6328125,3101.091,-0.9609375,0.322265625,-4.833984375,3103.221,18.5,27.4375,-12.25
291,3112.981,-5.59375,-8.33203125,0.546875,3111.2129999999997,-1.14453125,0.611328125,-4.779296875,3113.092,17.125,28.5,-12.125
292,3130.884,-5.01953125,-9.16796875,0.57421875,3128.663,-1.216796875,0.77734375,-4.5078125,3130.89,16.625,29.3125,-10.75
293,3142.744,-4.75,-9.4609375,0.48046875,3141.2140000000004,-1.05859375,0.70703125,-4.25390625,3142.656,13.4375,30.1875,-6.875
294,3166.364,-4.55859375,-9.48046875,0.31640625,3166.089,-0.431640625,-0.0078125,-3.599609375,3166.176,11.5,30.9375,-5.25
295,3178.4300000000003,-3.9453125,-9.34765625,0.3046875,3176.24,-0.267578125,-0.33984375,-3.357421875,3178.334,6.0,28.3125,3.1875
296,3183.719,-3.78125,-9.34375,0.25,3183.656,-0.23828125,-0.4453125,-3.162109375,3183.8030000000003,4.25,28.75,3.4375
297,3193.717,-2.59375,-9.76171875,0.3359375,3193.7419999999997,-0.3046875,-0.369140625,-3.013671875,3193.8759999999997,3.5625,29.1875,2.875
298,3203.567,-2.91015625,-9.83984375,0.36328125,3203.687,-0.466796875,-0.193359375,-2.943359375,3203.748,1.75,29.4375,5.125
299,3211.552,-3.91796875,-9.73046875,0.4609375,3211.0699999999997,-0.580078125,0.08203125,-2.791015625,3211.2569999999996,1.25,29.25,5.8125
300,3221.1569999999997,-3.390625,-10.0703125,0.5859375,3221.166,-0.720703125,0.34375,-2.6328125,3221.342,1.25,29.25,5.8125
301,3241.3940000000002,-3.33203125,-9.73046875,0.69140625,3241.2070000000003,-0.66015625,0.5625,-2.16796875,3241.16,-0.75,29.625,6.0625
302,3256.2250000000004,-2.73046875,-9.3515625,1.08203125,3256.287,-0.279296875,0.521484375,-2.146484375,3256.118,-2.25,29.375,7.0
303,3271.245,-3.06640625,-8.77734375,1.58984375,3271.302,0.431640625,0.240234375,-2.126953125,3271.431,-2.0625,29.875,7.625
304,3283.04,-1.6484375,-8.48828125,1.78125,3281.0480000000002,0.953125,0.03125,-2.16015625,3283.1079999999997,-4.9375,29.25,7.0
305,3302.808,-0.35546875,-8.8828125,1.9921875,3301.342,1.78125,-0.00390625,-2.5703125,3302.9190000000003,-5.25,29.625,3.8125
306,3310.884,-0.98828125,-8.97265625,1.83984375,3308.846,1.978515625,0.115234375,-2.80078125,3310.8900000000003,-5.9375,29.8125,3.125
307,3320.938,-0.35546875,-9.84375,1.84765625,3318.683,2.212890625,0.130859375,-2.91796875,3320.745,-6.875,30.0,2.0
308,3336.2219999999998,-0.73828125,-10.6875,1.65625,3336.243,2.537109375,0.11328125,-2.984375,3336.215,-7.75,29.3125,-1.375
309,3358.452,-1.08984375,-11.328125,1.703125,3356.2219999999998,2.689453125,0.099609375,-2.69140625,3358.514,-9.625,27.5,-4.375
310,3363.6639999999998,-0.84375,-11.51171875,1.5625,3363.603,2.658203125,0.20703125,-2.478515625,3363.724,-10.125,27.8125,-7.8125
311,3373.686,-0.69921875,-11.6328125,1.08203125,3373.8100000000004,2.490234375,0.23828125,-2.107421875,3373.882,-10.6875,27.625,-10.4375
312,3381.459,-0.26953125,-11.89453125,0.546875,3381.177,2.255859375,0.40234375,-1.876953125,3381.262,-11.8125,26.5,-13.875
313,3393.9530000000004,-1.55078125,-11.5859375,-0.44140625,3393.635,1.703125,0.474609375,-1.44921875,3393.6600000000003,-12.3125,27.125,-13.125
314,3413.6259999999997,-0.70703125,-11.1484375,-1.140625,3411.273,0.78515625,0.357421875,-0.828125,3413.634,-13.125,26.8125,-15.75
315,3429.675,-0.02734375,-10.51953125,-0.9375,3428.694,0.041015625,-0.18359375,-0.44140625,3429.665,-12.8125,26.5625,-18.625
316,3443.307,0.546875,-10.359375,-0.6328125,3441.116,-0.490234375,-0.4609375,-0.333984375,3443.3129999999996,-13.5,26.5625,-18.5625
317,3463.149,1.7421875,-10.91796875,0.15234375,3461.181,-1.330078125,-0.578125,-0.41796875,3463.06,-13.5625,26.375,-17.125
318,3472.9269999999997,1.87890625,-11.7421875,0.74609375,3471.1530000000002,-1.64453125,-0.517578125,-0.390625,3473.04,-13.6875,26.25,-14.3125
319,3481.002,1.1875,-12.265625,1.41796875,3478.716,-1.78125,-0.474609375,-0.330078125,3481.009,-14.4375,25.8125,-14.25
320,3490.898,-0.4609375,-12.359375,2.15625,3488.6949999999997,-1.798828125,-0.3828125,-0.13671875,3490.993,-13.5,26.875,-13.0
321,3501.118,-0.7578125,-11.93359375,2.3359375,3501.2340000000004,-1.6015625,-0.267578125,0.158203125,3501.2439999999997,-14.5625,26.5,-10.6875
322,3513.651,0.8125,-11.765625,1.84765625,3513.5570000000002,-1.287109375,-0.234375,0.3203125,3513.883,-14.9375,26.3125,-8.5625
323,3522.525,1.08984375,-11.5,1.5625,3521.164,-1.0703125,-0.326171875,0.359375,3522.335,-14.25,26.75,-8.0
324,3531.161,0.546875,-11.2890625,1.265625,3531.237,-0.822265625,-0.439453125,0.39453125,3531.2610000000004,-14.6875,26.375,-4.5
325,3540.326,0.65234375,-11.11328125,0.96875,3538.792,-0.703125,-0.51171875,0.443359375,3540.422,-14.6875,26.375,-4.5
326,3551.352,0.86328125,-11.12890625,1.00390625,3551.225,-0.576171875,-0.578125,0.552734375,3551.1560000000004,-14.5625,26.5625,-6.5625
327,3575.917,-0.25,-10.0859375,1.67578125,3573.688,-0.36328125,-0.625,0.732421875,3575.926,-13.5625,27.875,-2.5
328,3581.2870000000003,-0.31640625,-9.671875,1.4765625,3581.219,-0.33203125,-0.5390625,0.75390625,3581.191,-13.4375,27.6875,-3.875
329,3601.1839999999997,1.21484375,-9.01171875,0.40234375,3601.206,-0.568359375,-0.427734375,0.55078125,3601.262,-13.25,26.8125,-3.1875
330,3611.433,1.1484375,-9.21484375,1.015625,3611.279,-0.642578125,-0.4296875,0.376953125,3611.27,-13.125,27.3125,-1.125
331,3623.1749999999997,-0.15234375,-10.01953125,3.265625,3621.331,-0.466796875,-0.453125,0.375,3623.287,-12.625,27.75,-1.1875
332,3635.249,0.10546875,-9.44140625,2.5390625,3633.98,0.07421875,-0.376953125,0.447265625,3635.255,-12.9375,27.3125,6.9375
333,3641.216,0.515625,-9.171875,1.4453125,3638.716,0.201171875,-0.32421875,0.44921875,3641.382,-12.3125,27.75,5.4375
334,3660.961,0.23046875,-9.47265625,0.6796875,3658.869,0.109375,-0.203125,0.373046875,3661.084,-11.625,27.125,5.9375
335,3670.8650000000002,-0.0859375,-9.98828125,0.8515625,3668.626,0.013671875,-0.146484375,0.435546875,3670.8720000000003,-11.625,28.4375,6.625
336,3682.565,-0.1640625,-10.0546875,0.765625,3681.2149999999997,-0.044921875,-0.08984375,0.6015625,3682.656,-12.0,27.125,4.6875
337,3700.545,-0.1328125,-9.9296875,0.18359375,3698.698,-0.189453125,0.056640625,0.666015625,3700.555,-11.9375,27.8125,6.6875
338,3710.395,-0.4609375,-10.1796875,0.44140625,3708.8269999999998,-0.20703125,-0.029296875,0.724609375,3710.401,-11.0,27.8125,5.125
339,3721.3250000000003,-0.65234375,-10.4140625,0.35546875,3721.2679999999996,-0.123046875,-0.15625,0.8828125,3721.2309999999998,-10.875,28.0,6.4375
340,3733.871,-0.59375,-10.75390625,-0.10546875,3733.6800000000003,-0.138671875,-0.244140625,1.044921875,3733.647,-11.0625,28.0,5.875
341,3751.535,-0.77734375,-10.95703125,-0.078125,3751.317,-0.26171875,-0.322265625,1.34765625,3751.241,-9.625,28.4375,6.1875
342,3761.12,-0.96875,-11.2890625,0.2109375,3761.1259999999997,-0.314453125,-0.28515625,1.6015625,3761.234,-9.625,28.4375,6.1875
343,3773.576,-1.12109375,-11.60546875,-0.046875,3771.2949999999996,-0.427734375,-0.09765625,1.880859375,3773.581,-8.75,29.125,7.9375
344,3781.545,-1.2265625,-11.5546875,-0.26953125,3781.358,-0.73046875,0.234375,2.048828125,3781.312,-8.375,28.75,8.5
345,3801.4359999999997,-2.31640625,-10.05859375,-1.7421875,3801.244,-1.71484375,0.720703125,2.224609375,3801.543,-7.1875,28.75,8.9375
346,3811.237,-1.109375,-10.0,-1.80859375,3809.453,-2.07421875,1.05859375,2.185546875,3811.418,-6.4375,28.5625,9.375
347,3823.765,-1.21484375,-9.59375,-1.1796875,3823.842,-2.39453125,1.013671875,1.8828125,3823.9260000000004,-5.4375,28.1875,11.8125
348,3836.282,-1.41796875,-9.79296875,-0.74609375,3836.254,-2.193359375,0.69921875,1.69921875,3836.224,-5.8125,28.875,13.1875
349,3843.789,-1.71484375,-10.296875,-0.56640625,3843.7839999999997,-1.912109375,0.427734375,1.7109375,3843.794,-5.5625,28.75,17.8125
350,3850.892,-1.9453125,-11.109375,-0.73828125,3848.612,-1.708984375,0.193359375,1.779296875,3850.987,-5.875,28.5,15.875
351,3861.364,-2.82421875,-12.32421875,-0.73828125,3861.553,-1.236328125,-0.287109375,2.125,3861.322,-4.4375,27.9375,18.8125
352,3880.512,-4.7890625,-12.5625,-1.8203125,3878.695,-0.92578125,-0.380859375,2.84375,3880.518,-3.875,27.75,20.6875
353,3893.85,-3.95703125,-11.67578125,-1.75390625,3893.671,-0.888671875,-0.474609375,3.482421875,3893.75,-2.75,28.625,21.8125
354,3906.1349999999998,-2.8828125,-10.27734375,-1.7734375,3903.789,-0.76953125,-0.724609375,3.74609375,3906.203,-1.625,27.8125,20.125
355,3916.5299999999997,-2.8828125,-9.3359375,-1.484375,3916.235,-0.541015625,-1.04296875,3.900390625,3916.3039999999996,-0.375,27.625,22.4375
356,3923.751,-3.44921875,-8.7421875,-1.24609375,3923.674,-0.4296875,-1.140625,3.9453125,3923.92,1.0,27.875,20.8125
357,3943.6870000000004,-3.15234375,-8.08203125,-0.046875,3941.2189999999996,-0.466796875,-0.91796875,3.794921875,3943.695,3.9375,27.3125,21.375
358,3953.5330000000004,-3.96484375,-8.21875,0.125,3951.2520000000004,-0.650390625,-0.419921875,3.623046875,3953.539,4.5625,26.25,21.875
359,3963.437,-3.66015625,-8.8671875,-0.1328125,3961.231,-0.82421875,-0.083984375,3.482421875,3963.442,5.6875,26.5,23.625
360,3991.299,-5.87890625,-9.9453125,-0.99609375,3988.75,-0.9609375,0.04296875,3.8359375,3991.3669999999997,8.125,25.5,21.5625
361,4001.4469999999997,-6.875,-9.7578125,-0.96875,4001.157,-0.95703125,-0.0546875,4.3671875,4001.1789999999996,9.6875,24.4375,22.5
362,4011.1869999999994,-8.2265625,-8.515625,-0.73828125,4008.7339999999995,-0.958984375,-0.033203125,4.8125,4011.12,11.1875,23.4375,22.0625
363,4020.949,-7.5546875,-7.0859375,-0.046875,4018.712,-0.99609375,0.357421875,5.318359375,4020.9539999999997,12.375,23.25,22.4375
364,4031.298,-7.3359375,-5.5078125,0.7265625,4031.231,-0.966796875,0.66796875,5.56640625,4031.2590000000005,14.0,22.25,23.9375
365,4046.2470000000003,-4.9765625,-4.09765625,0.671875,4046.2680000000005,-0.65625,0.986328125,5.279296875,4046.2850000000003,14.875,21.1875,24.4375
366,4056.4489999999996,-3.87890625,-3.6015625,0.19140625,4056.3079999999995,-0.306640625,0.826171875,4.73828125,4056.3390000000004,16.5625,19.9375,24.5625
367,4068.4259999999995,-4.4453125,-3.7265625,-1.16015625,4066.287,0.19921875,0.60546875,4.18359375,4068.435,17.125,18.9375,24.375
368,4073.7819999999997,-5.18359375,-3.7734375,-1.6953125,4073.6059999999998,0.591796875,0.384765625,3.908203125,4073.67,18.375,18.75,24.0625
369,4083.857,-7.68359375,-3.515625,-2.3671875,4083.665,1.0703125,-0.037109375,3.73046875,4083.7700000000004,18.6875,17.0625,25.3125
370,4096.078,-8.78125,-2.59375,-2.60546875,4093.921,1.48046875,-0.458984375,3.822265625,4096.0830000000005,20.0,17.3125,24.3125
371,4105.987,-8.2421875,-1.7421875,-2.23046875,4103.761,1.71875,-0.68359375,3.962890625,4105.995,19.625,16.0,23.0
372,4113.780000000001,-7.734375,-1.46484375,-1.96484375,4113.836,1.83203125,-0.68359375,4.05078125,4113.967,21.3125,15.375,21.1875
373,4123.663,-6.8203125,-0.65234375,-1.45703125,4121.22,1.87109375,-0.517578125,3.935546875,4123.672,22.9375,14.9375,19.4375
374,4148.838,-5.4375,0.01953125,-1.62890625,4148.864,1.865234375,-0.169921875,2.841796875,4149.023999999999,24.125,13.4375,17.0625
375,4153.358,-5.05078125,-0.48046875,-2.01171875,4151.228,1.865234375,-0.162109375,2.724609375,4153.2609999999995,24.25,12.5625,15.75
376,4163.251,-6.25390625,-1.46484375,-2.51953125,4161.1269999999995,1.82421875,-0.23828125,2.2109375,4163.163,25.5,12.8125,16.125
377,4171.271,-7.16796875,-2.22265625,-2.81640625,4168.759,1.716796875,-0.310546875,2.013671875,4171.276,25.5,12.8125,16.125
378,4182.924,-9.55078125,-2.4609375,-2.78515625,4181.366,1.3828125,-0.232421875,2.044921875,4183.073,25.375,11.75,14.0625
379,4191.133,-11.02734375,-1.54296875,-2.671875,4188.937,1.138671875,-0.080078125,2.40234375,4191.043,27.0,10.6875,12.9375
380,4200.936,-9.58984375,0.01953125,-2.44140625,4198.754,0.763671875,-0.00390625,2.888671875,4201.031999999999,26.375,10.5,13.8125
381,4216.439,-6.74609375,1.98046875,-1.953125,4216.26,0.27734375,0.322265625,2.830078125,4216.317,27.3125,10.25,12.1875
382,4226.402,-5.859375,2.96875,-1.92578125,4226.214,0.171875,0.46484375,2.3203125,4226.308,27.5625,9.4375,14.0625
383,4238.505,-5.9296875,3.20703125,-2.3828125,4236.322,0.134765625,0.271484375,1.65625,4238.566,27.4375,8.5625,12.6875
384,4246.382,-6.00390625,2.7578125,-2.59375,4246.387000000001,0.115234375,0.0,1.080078125,4246.316,28.5,7.6875,11.75
385,4250.515,-6.8203125,2.19140625,-2.73828125,4248.872,0.095703125,-0.0390625,0.962890625,4250.321,28.5,7.6875,11.75
386,4271.3099999999995,-9.67578125,0.19140625,-2.86328125,4271.282,-0.30078125,-0.076171875,0.736328125,4271.316,27.3125,6.875,13.375
387,4281.359,-10.7109375,0.21875,-2.56640625,4281.37,-0.470703125,-0.056640625,0.966796875,4281.361000000001,27.3125,6.875,13.375
388,4293.89,-10.03125,1.51171875,-1.87890625,4291.437,-0.501953125,-0.09375,1.19140625,4293.698,28.8125,6.4375,13.0
389,4301.315,-9.12890625,2.2109375,-1.63671875,4301.345,-0.423828125,-0.1015625,1.23828125,4301.222,28.3125,6.25,11.125
390,4311.299,-8.04296875,3.140625,-1.4375,4311.2519999999995,-0.3046875,-0.1015625,1.009765625,4311.405,28.625,5.375,12.25
391,4321.268,-7.26171875,3.44921875,-1.40625,4321.272,-0.166015625,-0.103515625,0.626953125,4321.245,28.625,5.375,12.25
392,4333.281999999999,-7.3984375,2.6328125,-1.55078125,4331.269,-0.076171875,-0.103515625,0.177734375,4333.287,28.6875,5.1875,11.625
393,4346.337,-9.58203125,1.33203125,-1.9140625,4346.292,0.0078125,-0.046875,-0.134765625,4346.275000000001,28.4375,4.9375,11.6875
394,4371.156,-11.22265625,0.6796875,-3.0078125,4368.926,-0.13671875,-0.212890625,0.548828125,4370.965,28.8125,5.625,13.0
395,4381.263,-10.109375,1.37890625,-3.140625,4381.297,-0.341796875,-0.24609375,0.873046875,4381.265,28.6875,5.1875,11.625
396,4390.869000000001,-8.73828125,2.078125,-2.9765625,4388.932,-0.455078125,-0.298828125,0.927734375,4390.777,29.0625,5.1875,12.875
397,4401.358,-8.15625,2.35546875,-2.57421875,4401.42,-0.59765625,-0.369140625,0.755859375,4401.451,28.5,5.1875,11.0625
398,4411.255,-8.75390625,2.25,-2.078125,4411.364,-0.650390625,-0.375,0.5703125,4411.360000000001,29.75,4.5,8.625
399,4421.397,-9.49609375,1.80859375,-1.50390625,4421.351,-0.638671875,-0.404296875,0.5390625,4421.379,29.875,3.9375,12.0
400,4433.808,-10.07421875,1.40625,-0.84375,4433.833,-0.537109375,-0.416015625,0.65234375,4433.887000000001,29.25,4.125,10.8125
401,4443.889999999999,-10.26171875,1.24609375,-0.69140625,4443.813999999999,-0.466796875,-0.375,0.8359375,4443.826,29.375,3.6875,9.375
402,4463.875,-9.94140625,1.41796875,-0.69921875,4463.797,-0.42578125,-0.244140625,1.234375,4463.857,29.3125,3.25,10.0
403,4473.864,-9.76171875,1.5625,-0.69921875,4471.401,-0.4609375,-0.12890625,1.37109375,4473.669,29.5625,2.1875,9.9375
404,4481.251,-10.03515625,1.58203125,-0.6796875,4481.363,-0.541015625,-0.03125,1.5546875,4481.2570000000005,29.125,2.8125,9.4375
405,4491.245,-11.15625,1.28515625,-0.125,4491.251,-0.560546875,0.0703125,1.953125,4491.521,29.125,2.8125,9.4375
406,4503.446,-9.62890625,1.8203125,-0.0859375,4501.512,-0.486328125,0.24609375,2.234375,4503.418,29.6875,1.125,10.5625
407,4513.347000000001,-8.83984375,2.31640625,0.171875,4511.319,-0.2890625,0.294921875,2.421875,4513.319,29.5,0.0625,9.8125
408,4526.552,-8.3125,2.82421875,0.18359375,4526.194,0.13671875,0.33203125,2.5390625,4526.259,30.25,-0.125,9.625
409,4541.017,-7.98046875,3.0546875,-0.2890625,4538.814,0.521484375,0.35546875,2.5625,4540.985,29.75,-0.5625,9.75
410,4563.86,-8.09375,3.44921875,-1.59765625,4563.886,0.759765625,0.61328125,2.7109375,4563.954,29.75,-3.0625,13.6875
411,4573.95,-8.109375,3.87890625,-1.97265625,4573.974,0.681640625,0.662109375,2.810546875,4574.2570000000005,29.625,-4.5625,12.3125
412,4583.8369999999995,-8.53125,4.703125,-2.203125,4583.863,0.611328125,0.818359375,3.00390625,4583.932,29.0625,-3.6875,13.125
413,4598.366,-7.89453125,5.45703125,-2.453125,4596.407,0.546875,0.794921875,3.232421875,4598.641,28.5,-5.8125,15.875
414,4611.409,-6.59765625,5.59375,-2.96875,4611.41,0.47265625,0.611328125,3.3203125,4611.416,28.5625,-6.0,15.125
415,4633.818,-5.19140625,5.39453125,-4.0703125,4633.826,0.07421875,0.126953125,3.140625,4633.841,27.0,-8.1875,15.375
416,4641.456,-5.0546875,5.13671875,-4.15625,4641.432,-0.1875,-0.025390625,3.021484375,4641.421,27.125,-9.625,16.0
417,4653.717000000001,-6.4375,5.3359375,-3.8515625,4651.438,-0.59765625,-0.14453125,2.96875,4653.724999999999,26.375,-9.4375,16.1875
418,4673.478,-6.40625,6.17578125,-2.7109375,4671.268999999999,-1.412109375,0.12109375,3.33203125,4673.483,26.25,-11.75,16.75
419,4689.553,-4.65625,7.09375,-2.0703125,4688.825,-1.666015625,0.341796875,3.57421875,4689.369,25.125,-12.6875,15.625
420,4701.227,-3.8984375,7.76953125,-1.609375,4698.705999999999,-1.62109375,0.15234375,3.486328125,4701.232,23.9375,-14.5625,16.5625
421,4710.932,-3.12109375,7.94921875,-1.16015625,4709.317999999999,-1.484375,-0.02734375,3.283203125,4711.044,23.625,-16.5,14.5625
422,4731.387,-2.85546875,7.8671875,-0.70703125,4731.321,-1.08984375,-0.375,2.73046875,4731.366,22.4375,-18.25,16.0625
423,4743.8330000000005,-3.3125,7.8671875,-0.421875,4743.853,-0.93359375,-0.375,2.591796875,4743.926,22.8125,-18.875,11.9375
424,4753.8910000000005,-2.82421875,7.56640625,-0.14453125,4753.916,-0.828125,-0.26171875,2.52734375,4754.158,22.125,-19.375,11.5
425,4763.849999999999,-2.8046875,7.484375,0.14453125,4763.975,-0.703125,-0.12890625,2.49609375,4763.973,21.4375,-20.375,12.9375
426,4776.394,-3.92578125,7.9765625,0.2890625,4776.514,-0.443359375,-0.0078125,2.560546875,4776.500999999999,20.0,-20.8125,12.5625
427,4803.938999999999,-2.39453125,9.0078125,-0.5859375,4803.947,0.181640625,0.0859375,2.896484375,4803.915,20.25,-22.375,9.8125
428,4811.389,-1.5625,9.015625,-0.83203125,4811.339,0.29296875,0.015625,2.84375,4811.3099999999995,17.8125,-22.625,11.6875
429,4833.802000000001,-1.5234375,9.625,-1.484375,4831.4310000000005,0.345703125,-0.150390625,2.82421875,4833.673,16.25,-24.3125,12.0
430,4849.941000000001,0.1328125,9.0859375,-1.65625,4848.906999999999,0.07421875,-0.04296875,2.73046875,4849.647,15.75,-24.125,14.8125
431,4861.377,0.296875,8.8828125,-1.6484375,4861.335999999999,-0.23046875,0.177734375,2.49609375,4861.463,14.5625,-25.1875,13.6875
432,4871.312,-0.8984375,9.109375,-1.6484375,4868.99,-0.43359375,0.283203125,2.421875,4871.387000000001,13.75,-25.875,11.875
433,4883.157,-0.59375,9.5234375,-1.359375,4881.36,-0.70703125,0.54296875,2.447265625,4883.067999999999,13.125,-26.0625,13.4375
434,4891.128,-0.1328125,9.7734375,-1.3984375,4888.902,-0.7578125,0.6328125,2.43359375,4890.937,12.3125,-27.375,13.5625
435,4900.946,0.296875,10.0859375,-1.4375,4898.898,-0.701171875,0.552734375,2.330078125,4900.953,12.0,-26.75,11.6875
436,4911.429,0.73828125,10.234375,-1.3203125,4911.362999999999,-0.48828125,0.107421875,2.171875,4911.372,10.8125,-27.1875,13.1875
437,4928.754,1.3515625,9.96484375,-0.8125,4926.7609999999995,-0.2578125,-0.3125,1.794921875,4928.776,9.25,-28.0625,13.5
438,4938.585,0.9765625,9.54296875,-0.59375,4936.477,-0.166015625,-0.392578125,1.5859375,4938.644,8.5,-27.6875,11.75
439,4951.325,-0.34375,9.33203125,-0.2890625,4951.434,-0.169921875,-0.28515625,1.498046875,4951.527999999999,8.75,-28.5625,11.6875
440,4974.014,0.6796875,9.82421875,-0.35546875,4973.976000000001,-0.23046875,0.130859375,1.705078125,4973.904,7.1875,-29.625,12.0
441,4983.894,0.95703125,10.19140625,-0.546875,4983.856000000001,-0.25,0.228515625,1.685546875,4983.982,6.5625,-29.0,10.9375
442,4994.022,1.75390625,10.21875,-0.7578125,4993.83,-0.234375,0.2578125,1.548828125,4993.939,5.5,-29.1875,13.75
443,5001.459,2.0390625,10.01953125,-0.98828125,5001.426,-0.244140625,0.2265625,1.4140625,5001.427,5.25,-29.4375,11.875
444,5023.645,1.67578125,9.76171875,-0.765625,5021.42,-0.212890625,-0.033203125,1.189453125,5023.65,4.6875,-29.4375,12.0
445,5039.442,1.75390625,10.01171875,-0.70703125,5039.039,-0.16015625,-0.09765625,1.19921875,5039.456,5.0625,-29.25,11.1875
446,5051.307000000001,2.01171875,10.1796875,-0.515625,5048.83,-0.146484375,-0.126953125,1.193359375,5051.112,3.625,-29.9375,12.875
447,5061.2300000000005,2.85546875,9.984375,-0.32421875,5058.928,-0.138671875,-0.1328125,1.044921875,5061.039,3.375,-30.125,12.9375
448,5081.616,1.9921875,9.859375,-0.09765625,5081.44,-0.0703125,-0.01953125,0.642578125,5081.448,2.0,-29.9375,14.0
449,5091.628,1.83984375,10.0,-0.1640625,5091.46,0.021484375,-0.033203125,0.63671875,5091.57,1.9375,-30.5625,14.625
450,5100.933999999999,1.9921875,10.1875,-0.25,5099.071999999999,0.1015625,-0.080078125,0.638671875,5100.944,2.0,-29.75,11.25
451,5112.657999999999,2.48046875,10.34765625,-0.39453125,5111.4,0.21875,-0.12890625,0.53515625,5112.464,1.625,-30.1875,12.6875
452,5120.608,2.39453125,10.5234375,-0.49609375,5119.057,0.244140625,-0.125,0.46875,5120.7029999999995,1.625,-30.1875,12.6875
453,5143.851,3.49609375,10.53125,-0.6328125,5143.972,0.150390625,-0.119140625,0.12109375,5144.033,0.75,-30.5625,14.25
454,5151.446,3.45703125,10.34765625,-0.6328125,5151.421,0.08203125,-0.037109375,-0.072265625,5151.453,1.3125,-29.75,11.4375
455,5166.092,2.328125,9.921875,-0.4609375,5164.081,-0.005859375,0.10546875,-0.30859375,5166.1,0.875,-30.1875,12.875
456,5174.018,1.88671875,9.921875,-0.44140625,5173.847000000001,-0.017578125,0.193359375,-0.333984375,5173.924,0.5625,-30.75,15.5625
457,5183.71,2.03125,10.13671875,-0.515625,5181.391,0.06640625,0.22265625,-0.306640625,5183.782,1.4375,-29.75,12.125
458,5193.581,2.31640625,10.5,-0.7578125,5191.415,0.216796875,0.205078125,-0.31640625,5193.606,1.5,-30.3125,14.125
459,5203.566000000001,2.64453125,10.98828125,-0.91015625,5201.367,0.380859375,0.03515625,-0.365234375,5203.637,1.9375,-29.9375,12.0
460,5213.482,2.82421875,11.48828125,-1.08203125,5211.488,0.5390625,-0.15625,-0.482421875,5213.486,1.4375,-29.9375,14.75
461,5221.342,2.94140625,11.9609375,-1.28515625,5218.9529999999995,0.609375,-0.236328125,-0.623046875,5221.253,1.5,-29.75,14.125
462,5231.146,3.2578125,12.25,-1.51171875,5229.108,0.6328125,-0.3046875,-0.8359375,5231.152,1.5,-29.75,14.125
463,5241.467000000001,3.71484375,12.14453125,-1.63671875,5241.488,0.564453125,-0.294921875,-1.27734375,5241.5560000000005,2.1875,-29.6875,14.5625
464,5261.168,2.78515625,10.86328125,-1.609375,5258.971,0.38671875,-0.296875,-1.94921875,5260.978,3.375,-29.25,15.6875
465,5272.799,2.5,10.0625,-1.16796875,5271.546,0.287109375,-0.28515625,-2.1328125,5272.808,4.3125,-29.625,16.0625
466,5286.384,0.65234375,9.83984375,-1.08203125,5286.51,0.228515625,-0.146484375,-2.138671875,5286.834,5.25,-28.375,13.875
467,5296.4130000000005,0.84375,9.390625,-1.3515625,5296.424,0.228515625,-0.234375,-2.0703125,5296.368,5.125,-29.4375,15.25
468,5306.527,1.109375,8.91015625,-1.55078125,5304.03,0.236328125,-0.30859375,-2.03515625,5306.491,6.5625,-28.125,13.5625
469,5313.944,0.61328125,8.91796875,-1.50390625,5313.968,0.228515625,-0.435546875,-1.998046875,5313.937,8.0625,-28.3125,13.1875
470,5323.978,-0.32421875,9.046875,-1.33984375,5323.986,0.197265625,-0.494140625,-1.876953125,5324.155,7.5,-28.5625,13.9375
471,5331.522,-0.3359375,9.25,-1.33984375,5331.598,0.146484375,-0.421875,-1.779296875,5331.629000000001,7.875,-27.6875,15.25
472,5341.464,-0.19140625,9.71484375,-1.53125,5341.414000000001,0.08203125,-0.3203125,-1.720703125,5341.384,9.3125,-28.0625,12.875
473,5363.833,0.96875,10.484375,-1.72265625,5361.471,0.060546875,-0.419921875,-2.001953125,5363.84,9.875,-26.9375,15.5
474,5381.465999999999,0.94921875,9.5625,-1.5234375,5381.4710000000005,0.0078125,-0.572265625,-2.580078125,5381.669,11.375,-26.5625,13.0625
475,5391.536999999999,-0.57421875,8.98828125,-1.29296875,5391.407,-0.029296875,-0.578125,-2.7109375,5391.446,12.5,-25.9375,11.5625
476,5411.21,-0.91796875,8.66015625,-0.84375,5408.929,-0.15234375,-0.58203125,-2.578125,5411.124,14.25,-24.8125,11.8125
477,5421.092,-0.79296875,8.44921875,-0.6796875,5418.908,-0.23046875,-0.40625,-2.64453125,5421.1,14.25,-24.8125,11.8125
478,5432.9580000000005,-1.6484375,8.21875,-0.46875,5431.486,-0.26171875,-0.15234375,-2.748046875,5433.067999999999,15.8125,-24.0,8.875
479,5446.568,-2.84375,8.48046875,-0.44921875,5446.489,-0.091796875,0.08203125,-2.77734375,5446.462,16.375,-24.375,10.6875
480,5458.915,-2.77734375,9.1640625,-0.7578125,5456.354,0.111328125,0.009765625,-2.6953125,5458.719999999999,17.875,-23.5,8.25
481,5476.59,-0.87109375,9.4296875,-0.9375,5476.594,0.390625,-0.298828125,-3.015625,5476.542,18.125,-22.6875,8.375
482,5480.635,-0.5078125,9.2421875,-0.8984375,5478.901,0.41015625,-0.32421875,-3.115234375,5480.5419999999995,18.125,-22.6875,8.375
483,5491.616,-1.08984375,8.921875,-0.9296875,5491.2919999999995,0.470703125,-0.37890625,-3.556640625,5491.42,20.125,-21.125,9.1875
484,5506.213,-1.42578125,7.953125,-0.69140625,5504.069,0.556640625,-0.70703125,-3.74609375,5506.2210000000005,21.1875,-20.25,8.3125
485,5511.549,-1.68359375,7.8125,-0.53515625,5511.601,0.55078125,-0.755859375,-3.80078125,5511.47,22.25,-18.9375,8.125
486,5521.57,-2.59375,7.58984375,0.0,5521.403,0.48046875,-0.623046875,-3.83984375,5521.472,23.375,-17.9375,6.5625
487,5533.854,-3.34375,7.3359375,0.18359375,5531.508,0.333984375,-0.28125,-3.890625,5533.863,23.875,-17.5,7.1875
488,5543.675,-2.99609375,6.7421875,0.2578125,5541.778,0.185546875,0.05859375,-3.96875,5543.768,24.375,-16.4375,7.125
489,5553.688,-3.19921875,5.91015625,0.46875,5551.391,0.076171875,0.4375,-4.1796875,5553.713,25.0625,-15.3125,8.25
490,5563.487,-4.18359375,5.10546875,0.5546875,5561.461,0.109375,0.728515625,-4.296875,5563.558999999999,25.1875,-14.0,9.625
491,5581.338,-7.46875,5.23828125,0.05859375,5578.949,0.478515625,0.9765625,-4.041015625,5581.361,27.25,-12.0625,9.1875
492,5591.205000000001,-7.96875,5.87109375,-0.65234375,5589.039,0.71484375,0.94921875,-3.650390625,5591.116999999999,27.0,-11.1875,12.0
493,5606.67,-5.48828125,6.07421875,-1.66796875,5606.522,0.833984375,0.775390625,-3.3515625,5606.593,27.375,-10.125,11.25
494,5619.071,-2.8828125,5.15234375,-2.0703125,5616.34,0.763671875,0.771484375,-3.642578125,5618.977,27.1875,-8.6875,10.75
495,5629.016,-3.54296875,4.54296875,-2.05859375,5626.602,0.68359375,0.880859375,-4.0546875,5629.217,27.8125,-8.1875,14.5625
496,5644.1990000000005,-6.94140625,4.3671875,-2.14453125,5644.024,0.65625,0.9921875,-4.396484375,5644.091,27.9375,-5.875,14.0
497,5654.002,-8.07421875,4.30078125,-2.48046875,5653.9400000000005,0.599609375,0.900390625,-4.349609375,5654.086,27.125,-4.125,17.625
498,5664.0470000000005,-7.90625,3.8203125,-2.61328125,5663.9710000000005,0.56640625,0.904296875,-4.3125,5664.197999999999,26.5625,-3.5,18.4375
499,5676.4169999999995,-8.30859375,4.08984375,-3.265625,5673.887,0.556640625,0.75,-4.103515625,5676.222,27.6875,-1.75,17.625
500,5688.157,-6.9375,4.1171875,-3.390625,5686.848999999999,0.419921875,0.482421875,-3.978515625,5688.34,27.0,-1.125,17.0625
501,5713.848,-5.578125,1.38671875,-2.453125,5711.346,-0.0859375,0.453125,-4.7265625,5713.856,26.625,2.9375,19.3125
502,5723.753000000001,-7.0390625,0.44140625,-2.421875,5721.424,-0.240234375,0.787109375,-4.96875,5723.665,26.5625,4.25,20.125
503,5733.673,-8.41015625,-0.0859375,-2.671875,5731.34,-0.3671875,1.125,-4.9765625,5733.699,26.0625,5.4375,20.9375
504,5749.829,-7.03515625,-1.62890625,-2.9609375,5748.986000000001,-0.447265625,1.517578125,-4.6328125,5749.435,25.125,6.9375,20.625
505,5761.407,-7.21875,-2.98828125,-3.20703125,5759.026000000001,-0.328125,1.390625,-4.5546875,5761.502,23.625,9.0625,23.6875
506,5773.96,-9.37890625,-3.62109375,-3.37890625,5774.085999999999,-0.041015625,1.201171875,-4.26171875,5774.071,23.0625,9.75,24.625
507,5781.187,-11.0234375,-3.5703125,-3.71484375,5779.088,0.072265625,1.107421875,-4.037109375,5781.195000000001,23.0625,9.75,24.625
508,5801.642,-11.16015625,-4.0703125,-4.4609375,5801.826,0.474609375,-0.03125,-2.884765625,5801.556,20.5,12.4375,26.0
509,5810.843,-10.26171875,-4.7109375,-4.77734375,5809.089,0.474609375,-0.21484375,-2.5625,5810.846,19.5625,12.875,27.5625
510,5824.015,-9.82421875,-5.3359375,-5.41015625,5824.038,0.2890625,-0.3125,-2.001953125,5824.132,20.0625,13.5,28.125
511,5836.5419999999995,-10.203125,-6.08203125,-5.8046875,5834.063999999999,0.0859375,-0.404296875,-1.66796875,5836.687000000001,19.125,14.3125,25.0625
512,5861.61,-12.0,-6.05078125,-5.4296875,5861.557000000001,-0.474609375,-0.90234375,-0.369140625,5861.517,19.4375,15.1875,25.0
513,5871.59,-12.25390625,-5.45703125,-4.75,5871.523,-0.646484375,-1.05859375,0.251953125,5871.493,19.75,15.4375,26.3125
514,5881.494,-10.765625,-4.69140625,-3.9453125,5881.498,-0.779296875,-1.169921875,0.755859375,5881.609,19.75,15.4375,26.3125
515,5901.6900000000005,-9.44140625,-2.57421875,-2.77734375,5901.427,-0.970703125,-0.869140625,1.064453125,5901.514,20.0,14.75,23.5625
516,5913.465,-8.8984375,-1.37890625,-2.25,5911.661,-0.96484375,-0.685546875,1.00390625,5913.577,20.375,13.5,24.6875
517,5923.511,-8.40234375,-0.62109375,-2.078125,5921.519,-0.853515625,-0.693359375,0.814453125,5923.46,20.875,13.9375,27.3125
518,5931.556,-7.7421875,-0.40234375,-1.96484375,5929.049,-0.734375,-0.662109375,0.62890625,5931.561000000001,20.875,13.9375,27.3125
519,5951.433,-8.5859375,-0.3828125,-1.5703125,5951.549,-0.201171875,-0.68359375,-0.00390625,5951.616999999999,21.5,12.875,23.125
520,5961.537,-9.20703125,-0.4296875,-1.37109375,5961.567999999999,0.060546875,-0.69140625,-0.181640625,5961.537,21.1875,13.0625,23.875
521,5971.198,-9.4375,-0.5546875,-1.5234375,5969.147000000001,0.2578125,-0.767578125,-0.26953125,5971.008000000001,21.8125,12.625,22.9375
522,5980.954,-9.890625,-0.5546875,-1.66796875,5979.08,0.482421875,-0.900390625,-0.376953125,5980.957,21.25,13.0625,23.125
523,5990.799,-8.87890625,-0.79296875,-1.76171875,5989.1230000000005,0.654296875,-1.103515625,-0.427734375,5990.802000000001,22.3125,12.8125,20.25
524,6011.482,-8.703125,-0.5859375,-1.88671875,6011.6230000000005,0.9140625,-1.185546875,-0.693359375,6011.487,22.375,13.4375,19.625
525,6021.933,-8.50390625,-0.69921875,-1.7734375,6021.657,1.01171875,-1.328125,-0.8515625,6021.643,21.9375,13.625,16.375
526,6036.173,-8.1953125,-1.1796875,-1.72265625,6034.048000000001,1.05859375,-1.44140625,-1.064453125,6036.241999999999,23.1875,14.625,14.75
527,6048.163,-8.52734375,-1.4921875,-1.7421875,6046.791,1.00390625,-1.3828125,-1.19140625,6048.241,23.125,14.6875,15.4375
528,6061.648,-8.6484375,-1.6953125,-1.71484375,6061.594999999999,0.8359375,-1.412109375,-1.298828125,6061.621999999999,23.1875,14.625,12.0625
529,6081.443,-8.5390625,-1.96484375,-1.24609375,6081.4490000000005,0.595703125,-1.40234375,-1.4375,6081.7,23.6875,15.4375,10.0
530,6093.526,-8.1171875,-2.125,-0.95703125,6091.595,0.4921875,-1.5078125,-1.529296875,6093.532,23.25,16.5,9.5
531,6111.485,-7.7578125,-2.5078125,-0.65234375,6109.21,0.333984375,-1.619140625,-1.708984375,6111.493,22.5625,16.625,6.375
532,6121.306,-7.57421875,-2.6640625,-0.36328125,6119.035,0.259765625,-1.6328125,-1.798828125,6121.375,22.5,17.5,7.125
533,6136.596,-7.22265625,-2.65234375,0.296875,6136.634,0.16015625,-1.66015625,-2.1015625,6136.678,22.5625,18.3125,4.4375
534,6149.151,-6.9921875,-2.85546875,0.7578125,6146.438,0.126953125,-1.673828125,-2.302734375,6149.0289999999995,22.5625,17.875,4.4375
535,6159.036999999999,-6.82421875,-3.140625,0.87109375,6156.62,0.12109375,-1.640625,-2.51953125,6158.983,22.625,18.25,1.0625
536,6166.604,-6.8671875,-3.3125,0.7578125,6166.729,0.125,-1.6875,-2.78515625,6166.646,22.4375,19.3125,0.5625
537,6171.716,-6.90625,-3.5234375,0.9765625,6171.598999999999,0.14453125,-1.70703125,-2.900390625,6171.6449999999995,21.625,20.3125,-0.5625
538,6184.048,-6.76171875,-3.6953125,1.16015625,6184.128000000001,0.150390625,-1.7578125,-3.146484375,6184.130999999999,21.75,20.75,-1.9375
539,6196.49,-5.66796875,-3.83203125,1.3125,6194.036,0.111328125,-1.765625,-3.380859375,6196.4980000000005,20.4375,21.8125,-0.8125
540,6206.36,-5.0390625,-3.8515625,1.71484375,6203.974999999999,0.013671875,-1.740234375,-3.591796875,6206.384,20.125,22.375,-4.8125
541,6226.165,-3.62890625,-4.51953125,2.0390625,6224.053,-0.22265625,-1.337890625,-4.1328125,6226.174,18.375,22.8125,-2.375
542,6233.9580000000005,-3.640625,-5.01171875,2.1171875,6231.571,-0.3125,-1.083984375,-4.3515625,6234.03,16.875,23.75,-4.5625
543,6243.83,-3.66015625,-5.82421875,2.296875,6241.568,-0.421875,-0.794921875,-4.62109375,6243.835,16.5625,25.4375,-5.75
544,6271.621999999999,-2.8828125,-8.26953125,1.46484375,6271.484,-1.14453125,0.142578125,-4.775390625,6271.768,13.8125,25.0,-3.125
545,6281.558999999999,-2.01171875,-9.41796875,1.359375,6279.083,-1.4140625,0.525390625,-4.876953125,6281.723999999999,10.4375,26.875,-1.5
546,6291.471,-2.22265625,-10.171875,1.16796875,6289.034,-1.72265625,1.052734375,-4.9140625,6291.479,10.4375,26.875,-1.5
547,6313.1810000000005,-4.01171875,-10.8515625,1.03515625,6311.589,-2.029296875,1.755859375,-4.619140625,6313.187,5.625,28.75,5.125
548,6321.593,-3.87890625,-11.0078125,0.9296875,6321.523,-1.984375,1.89453125,-4.330078125,6321.535,3.0625,28.75,8.375
549,6336.5289999999995,-3.28515625,-11.203125,0.6328125,6336.4529999999995,-1.673828125,1.84375,-3.75,6336.659,1.8125,28.75,8.6875
550,6346.73,-3.5234375,-11.0859375,0.4296875,6346.688,-1.384765625,1.673828125,-3.419921875,6346.616,0.375,28.5,10.375
551,6364.09,-6.15625,-13.171875,-0.06640625,6363.911,-0.951171875,1.291015625,-2.33984375,6363.974,-2.8125,28.5,15.125
552,6371.471,-2.99609375,-12.68359375,-0.1328125,6371.417,-0.81640625,1.01953125,-1.8046875,6371.478,-3.6875,28.5,16.0625
553,6384.11,-0.91796875,-11.8046875,-0.61328125,6384.231,-0.447265625,0.888671875,-1.47265625,6384.403,-4.4375,28.3125,14.1875
554,6394.033,-1.7421875,-11.29296875,-0.62109375,6393.951999999999,-0.12890625,0.64453125,-1.2734375,6394.285,-5.125,28.6875,15.6875
555,6411.719,-1.89453125,-10.3671875,-0.74609375,6411.683,0.375,0.353515625,-1.15625,6411.6939999999995,-6.25,28.3125,17.3125
556,6423.787,-2.05859375,-10.0625,-0.86328125,6421.634,0.546875,0.28125,-1.12890625,6423.917,-6.4375,28.625,14.0625
557,6433.791,-1.53125,-9.796875,-0.94921875,6431.648,0.66796875,0.095703125,-1.138671875,6433.763,-6.875,27.8125,13.5
558,6443.638,-1.55078125,-9.56640625,-1.12890625,6441.6359999999995,0.716796875,-0.037109375,-1.16796875,6443.751,-7.9375,28.4375,16.375
559,6461.482,-1.66796875,-9.375,-0.9296875,6459.5,0.587890625,-0.328125,-1.09375,6461.594,-7.875,28.375,13.75
560,6471.606000000001,-1.265625,-9.14453125,-0.73828125,6471.714999999999,0.36328125,-0.400390625,-1.0390625,6471.523999999999,-8.375,28.375,13.875
561,6486.5830000000005,-0.11328125,-9.08984375,-0.46875,6486.7080000000005,0.125,-0.275390625,-1.1328125,6486.780000000001,-8.9375,28.625,14.0
562,6491.59,0.23046875,-9.25390625,-0.19140625,6491.6179999999995,0.0703125,-0.18359375,-1.224609375,6491.590999999999,-8.6875,28.625,13.9375
563,6501.687000000001,-0.21875,-9.46875,0.3046875,6501.874,-0.01953125,0.126953125,-1.37109375,6501.845,-9.0625,27.75,12.6875
564,6512.956,-1.234375,-10.60546875,0.27734375,6511.611,-0.03515625,0.228515625,-1.583984375,6512.786,-10.0,28.1875,14.875
565,6520.908,-1.37109375,-11.28125,0.32421875,6519.396000000001,0.01953125,0.201171875,-1.388671875,6521.02,-10.0,28.1875,14.875
566,6531.732,-0.70703125,-11.2109375,-0.19140625,6531.695,0.1171875,0.15234375,-1.044921875,6531.639,-10.875,27.6875,11.125
567,6544.21,-0.3828125,-11.00390625,-0.44921875,6544.217,0.193359375,0.1328125,-0.80078125,6544.124,-10.5625,27.6875,13.0625
568,6551.678,-1.51171875,-10.5390625,-0.421875,6551.616,0.294921875,0.02734375,-0.607421875,6551.685,-11.9375,27.6875,14.75
569,6566.316,-0.91015625,-10.03515625,-0.34375,6564.054999999999,0.5859375,-0.2265625,-0.3828125,6566.324,-10.9375,27.6875,11.75
570,6576.247,-0.26953125,-9.75390625,-0.26953125,6574.222,0.908203125,-0.46484375,-0.263671875,6576.256,-11.625,28.25,11.3125
571,6584.067,0.44140625,-9.4765625,0.078125,6581.778,1.162109375,-0.755859375,-0.251953125,6584.139999999999,-11.5625,27.4375,10.5625
572,6603.871,1.08984375,-9.453125,0.56640625,6601.744,1.60546875,-1.0625,-0.37109375,6603.8769999999995,-11.4375,27.625,9.25
573,6613.743,1.1953125,-9.5546875,0.8515625,6611.535,1.611328125,-1.029296875,-0.51171875,6613.7480000000005,-11.125,28.0625,8.5
574,6629.745,0.9296875,-9.82421875,1.08984375,6629.028,1.3046875,-0.60546875,-0.712890625,6629.570000000001,-11.375,28.5,9.3125
575,6641.4580000000005,0.23828125,-9.76171875,0.9375,6639.2429999999995,0.958984375,-0.224609375,-0.802734375,6641.466,-12.125,27.125,6.0625
576,6651.319,0.61328125,-10.26953125,0.48828125,6649.508,0.52734375,0.28515625,-0.798828125,6651.228,-11.75,27.75,2.6875
577,6661.83,0.39453125,-10.71484375,0.09765625,6661.753,-0.044921875,0.72265625,-0.728515625,6661.698,-12.0,28.0,4.75
578,6671.643999999999,-0.125,-10.90625,-0.2109375,6671.578,-0.33984375,0.763671875,-0.630859375,6671.585999999999,-11.75,28.0,5.3125
579,6691.11,0.1640625,-11.58203125,0.2578125,6689.132,-0.443359375,0.478515625,-0.3046875,6691.114,-12.5,28.0,5.5
580,6704.237,-0.26953125,-11.80859375,0.77734375,6704.245,-0.1640625,0.052734375,0.13671875,6704.151000000001,-13.3125,27.75,5.8125
581,6711.997,-0.14453125,-11.2421875,1.00390625,6711.657,-0.029296875,-0.12890625,0.208984375,6711.804,-12.375,27.3125,6.1875
582,6724.11,0.74609375,-10.2578125,0.91796875,6724.147,0.177734375,-0.201171875,0.1640625,6724.186000000001,-13.0625,27.75,5.625
583,6734.196,0.375,-10.23828125,0.62109375,6734.119,0.224609375,-0.166015625,0.076171875,6734.132,-12.9375,27.0625,4.3125
584,6744.023999999999,0.15234375,-10.6171875,0.48046875,6744.142,0.166015625,-0.091796875,0.0546875,6744.2029999999995,-11.8125,27.5625,5.3125
585,6754.13,-0.11328125,-10.92578125,0.48828125,6754.137,0.06640625,-0.044921875,0.146484375,6754.316,-13.125,27.75,3.625
586,6761.697,0.0390625,-11.01171875,0.69140625,6761.665,0.04296875,-0.09765625,0.236328125,6761.66,-12.0625,27.5,2.75
587,6771.563999999999,0.41015625,-10.69140625,0.96875,6771.57,0.06640625,-0.13671875,0.34765625,6771.553,-12.0625,27.5,2.75
588,6783.805,0.32421875,-10.4375,1.03515625,6781.561,0.115234375,-0.1796875,0.40234375,6783.876,-11.75,27.0625,2.0
589,6793.803,0.52734375,-10.44140625,0.87109375,6791.779,0.107421875,-0.150390625,0.453125,6793.625,-11.9375,28.0,4.0625
590,6803.607,0.44921875,-10.53515625,0.8046875,6801.577,0.029296875,-0.064453125,0.478515625,6803.612,-11.6875,28.0,4.6875
591,6821.339,-0.3828125,-12.109375,0.86328125,6819.155000000001,-0.1484375,0.15625,0.634765625,6821.347000000001,-11.6875,27.5625,4.625
592,6831.689,-0.79296875,-12.5546875,0.57421875,6831.713,-0.341796875,0.3828125,1.119140625,6831.635,-11.0625,27.5625,3.125
593,6841.4349999999995,-0.05859375,-12.63671875,0.31640625,6839.054,-0.533203125,0.580078125,1.419921875,6841.244,-10.5625,28.4375,5.75
594,6851.148,0.10546875,-12.35546875,0.44140625,6849.271,-0.873046875,0.935546875,1.75,6851.151,-10.875,28.0625,6.4375
595,6861.675,-0.01953125,-12.4375,0.765625,6861.75,-1.41015625,1.64453125,2.041015625,6861.638,-10.125,28.0625,6.25
596,6871.973,-0.41015625,-12.3359375,0.73828125,6871.696,-1.73046875,2.150390625,2.3671875,6871.684,-9.25,28.6875,7.4375
597,6884.13,-1.265625,-10.87109375,-1.46484375,6884.268,-2.078125,2.392578125,2.53125,6884.224999999999,-9.0,28.6875,7.375
598,6904.093,-0.91796875,-9.98046875,-2.7109375,6904.216,-2.2890625,1.23046875,2.798828125,6904.275000000001,-8.125,28.5625,11.125
599,6911.975,-1.2734375,-10.453125,-1.45703125,6911.589,-2.0546875,0.693359375,2.82421875,6911.684,-7.0625,28.625,12.8125
600,6926.311,-1.92578125,-11.9296875,-0.21875,6923.99,-1.314453125,0.0703125,3.115234375,6926.336,-5.9375,28.6875,13.9375
601,6936.117,-1.96484375,-12.69140625,-0.765625,6934.043,-0.828125,-0.2265625,3.423828125,6936.226,-6.25,27.8125,14.6875
602,6955.963,-3.5625,-12.08203125,-3.16015625,6954.214999999999,-0.9296875,-0.359375,4.27734375,6955.969,-3.25,27.9375,17.1875
603,6961.745,-3.24609375,-12.02734375,-3.1328125,6961.539,-1.224609375,-0.669921875,4.5703125,6961.685,-2.0625,28.375,17.6875
604,6973.676,-4.53125,-10.35546875,-2.75,6971.777999999999,-1.578125,-0.80859375,4.759765625,6973.788,-1.125,28.25,20.75
605,6981.79,-3.0078125,-9.63671875,-2.39453125,6979.17,-1.72265625,-1.0625,4.939453125,6981.796,-1.125,28.25,20.75
606,7011.363,-1.4921875,-8.859375,-0.515625,7009.143,-1.494140625,-1.646484375,4.693359375,7011.369000000001,4.8125,26.875,19.875
607,7021.704,-2.61328125,-9.20703125,0.1640625,7021.637,-1.283203125,-1.45703125,4.52734375,7021.664000000001,7.3125,26.125,21.9375
608,7034.08,-4.1640625,-9.48046875,0.5859375,7034.1050000000005,-1.064453125,-1.10546875,4.595703125,7034.3330000000005,8.3125,24.875,21.625
609,7044.133000000001,-5.046875,-9.67578125,0.515625,7044.142,-0.880859375,-0.728515625,4.814453125,7044.265,10.25,24.4375,21.75
610,7058.857,-6.12109375,-9.01953125,-0.15234375,7056.719,-0.66015625,-0.556640625,5.2265625,7058.862,9.625,24.5,25.875
611,7081.674,-6.16796875,-6.68359375,0.5546875,7081.696,-0.185546875,-0.97265625,6.0390625,7081.768,14.1875,23.0625,22.0625
612,7096.338000000001,-5.93359375,-4.75,0.6015625,7094.2119999999995,-0.146484375,-1.05859375,6.14453125,7096.346,17.625,20.125,19.75
613,7101.751,-5.8515625,-4.25390625,0.546875,7101.58,-0.166015625,-0.96875,6.134765625,7101.652,19.0,18.4375,17.9375
614,7121.622,-5.578125,-2.2421875,0.0859375,7121.6179999999995,-0.115234375,-0.466796875,5.759765625,7121.629000000001,21.3125,16.1875,18.625
615,7133.95,-4.48046875,-1.5625,-0.3828125,7131.696,0.08203125,-0.439453125,5.341796875,7133.976,22.6875,15.125,16.875
616,7141.778,-4.4921875,-1.3125,-0.40234375,7141.783,0.34765625,-0.6171875,4.84375,7141.764,22.6875,15.125,16.875
617,7153.72,-5.390625,-0.18359375,0.0859375,7151.6539999999995,0.59375,-0.796875,4.55078125,7153.746,24.6875,13.0,14.3125
618,7166.759,-5.8203125,0.86328125,0.91796875,7166.711,0.82421875,-0.7421875,4.033203125,7166.6990000000005,25.375,11.75,14.0625
619,7181.362,-6.02734375,1.6171875,1.54296875,7179.111,0.91796875,-0.3359375,3.623046875,7181.371,26.0625,10.5,14.5
620,7201.718,-8.24609375,1.109375,0.94921875,7201.653,1.13671875,0.455078125,2.80859375,7201.661,27.8125,8.5625,11.375
621,7211.705,-10.0859375,1.12890625,0.4609375,7211.7789999999995,1.3515625,0.515625,2.890625,7211.865000000001,27.5625,7.6875,13.375
622,7221.817,-10.01171875,1.33203125,0.35546875,7221.7919999999995,1.591796875,0.359375,3.02734375,7221.818,28.0625,7.0625,11.25
623,7230.902999999999,-9.17578125,1.96484375,0.34375,7229.426,1.76171875,0.380859375,3.11328125,7230.905,27.9375,6.25,11.875
624,7241.835,-7.74609375,2.78515625,0.19921875,7241.774,2.001953125,0.5546875,3.03125,7241.642,28.3125,4.3125,13.0625
625,7256.661,-5.6328125,3.6484375,-0.5078125,7254.134,2.201171875,0.86328125,2.51953125,7256.772,28.125,4.75,12.5
626,7281.569,-6.91796875,2.52734375,-1.50390625,7281.676,2.443359375,0.908203125,0.958984375,7281.794,29.4375,3.5,11.375
627,7291.8240000000005,-9.51953125,2.296875,-2.05078125,7291.628000000001,2.498046875,0.84375,0.97265625,7291.754,29.4375,3.5,11.375
628,7304.0599999999995,-10.5546875,2.57421875,-2.625,7301.781,2.501953125,0.744140625,1.169921875,7304.065,28.5625,3.6875,12.9375
629,7313.846,-9.734375,2.73828125,-3.09375,7311.652999999999,2.357421875,0.759765625,1.30859375,7313.851,28.5,3.9375,13.6875
630,7329.813999999999,-8.6484375,3.6484375,-4.1640625,7329.294,1.892578125,0.98046875,1.33984375,7329.764,28.5,3.5,13.6875
631,7351.568,-6.7578125,3.8125,-5.95703125,7349.307,1.181640625,0.6875,0.828125,7351.775,28.1875,3.5625,16.375
632,7361.716,-7.5234375,3.36328125,-6.6171875,7361.739,0.587890625,0.498046875,0.427734375,7361.807,27.6875,3.125,16.5
633,7383.102,-9.3671875,2.23046875,-6.58984375,7381.907,-0.466796875,-0.015625,0.349609375,7383.106,27.1875,3.5,16.0
634,7391.09,-9.640625,2.05859375,-5.8984375,7389.423,-0.8046875,-0.166015625,0.404296875,7391.097000000001,27.375,2.5,19.25
635,7400.997,-10.09375,2.3359375,-4.86328125,7399.196,-1.126953125,-0.318359375,0.5703125,7401.0,27.1875,3.3125,16.0
636,7414.209,-9.71484375,2.81640625,-3.70703125,7414.217,-1.306640625,-0.58203125,0.763671875,7414.324,27.1875,1.875,18.5
637,7421.898999999999,-9.49609375,3.265625,-3.11328125,7421.6759999999995,-1.279296875,-0.65234375,0.830078125,7421.705,28.0625,1.1875,17.0
638,7434.1359999999995,-9.51953125,3.5625,-2.6796875,7434.249000000001,-1.189453125,-0.86328125,0.87109375,7434.143,27.5,1.625,15.0625
639,7454.217,-8.3359375,2.99609375,-2.40234375,7454.322,-1.119140625,-0.931640625,0.77734375,7454.511,29.1875,0.9375,13.375
640,7461.786,-9.19921875,2.85546875,-2.34765625,7461.823,-1.142578125,-0.9375,0.81640625,7461.871,28.625,0.75,11.5625
641,7471.923000000001,-9.67578125,2.8828125,-2.13671875,7471.723,-1.244140625,-0.912109375,0.93359375,7471.712,29.375,-0.125,13.3125
642,7493.758,-8.65625,3.23828125,-0.78515625,7491.842000000001,-1.30859375,-0.712890625,1.064453125,7493.853999999999,29.3125,-0.75,11.3125
643,7503.7919999999995,-8.66015625,3.44921875,-0.34375,7501.775000000001,-1.21484375,-0.638671875,1.09375,7503.7029999999995,29.4375,-0.5625,10.5625
644,7511.85,-8.26953125,3.515625,-0.078125,7509.743,-1.091796875,-0.580078125,1.107421875,7511.762,29.625,-1.375,10.4375
645,7521.649,-8.859375,3.37890625,0.1328125,7519.311,-0.896484375,-0.50390625,1.07421875,7521.652999999999,29.625,-1.375,10.4375
646,7533.4039999999995,-9.22265625,3.2578125,0.05859375,7531.758,-0.626953125,-0.546875,1.279296875,7533.513,28.4375,-2.0625,10.125
647,7541.406,-9.38671875,3.23828125,-0.14453125,7539.245,-0.494140625,-0.548828125,1.408203125,7541.433,29.25,-2.5,9.125
648,7551.31,-9.2109375,3.62109375,-0.34375,7549.496999999999,-0.376953125,-0.490234375,1.634765625,7551.312,29.6875,-2.6875,7.0625
649,7576.848,-7.31640625,4.328125,-0.53515625,7576.773,-0.20703125,-0.34765625,1.86328125,7577.13,30.0625,-5.0,8.1875
650,7586.747,-7.7109375,4.73046875,-0.375,7586.655000000001,-0.099609375,-0.296875,1.83984375,7586.836,29.5,-4.6875,6.375
651,7598.867,-8.02734375,5.23828125,-0.1640625,7596.695000000001,0.041015625,-0.30078125,1.896484375,7598.672,29.3125,-5.25,7.75
652,7604.297,-7.86328125,5.3515625,-0.09765625,7604.219,0.1484375,-0.263671875,1.9375,7604.449,30.375,-5.5,4.75
653,7614.365000000001,-7.63671875,5.53515625,-0.27734375,7614.374,0.29296875,-0.2265625,1.978515625,7614.379,30.0625,-5.5,5.5
654,7636.334,-7.22265625,5.36328125,-0.91796875,7634.406,0.43359375,-0.203125,2.025390625,7636.342,28.9375,-7.1875,6.375
655,7644.0830000000005,-7.59765625,5.21875,-1.37890625,7641.727000000001,0.412109375,-0.1875,2.05859375,7644.21,28.9375,-7.625,8.375
656,7663.949,-7.1015625,4.80859375,-2.05078125,7661.774,0.146484375,-0.220703125,2.291015625,7664.021,28.125,-8.9375,6.5
657,7679.86,-7.44140625,5.046875,-1.859375,7679.424,-0.189453125,-0.115234375,2.576171875,7679.811,29.5,-10.4375,4.75
658,7691.849999999999,-6.7578125,5.28515625,-1.4453125,7689.132,-0.3046875,-0.1640625,2.76171875,7691.8550000000005,27.8125,-10.0,6.5625
659,7701.734,-6.21484375,5.49609375,-1.12109375,7699.385,-0.375,-0.232421875,2.86328125,7701.660000000001,27.75,-12.375,4.5
660,7711.615,-6.21484375,5.6328125,-1.0625,7709.092,-0.421875,-0.287109375,2.966796875,7711.523999999999,27.5,-12.8125,4.5
661,7721.354,-6.30078125,5.87890625,-1.08203125,7719.411,-0.513671875,-0.30078125,3.1484375,7721.463,27.4375,-13.4375,5.125
662,7746.819,-4.9140625,6.41796875,-1.109375,7746.837,-0.8046875,-0.31640625,3.578125,7746.713,26.125,-15.375,2.75
663,7756.856,-4.75,6.66796875,-0.99609375,7756.884999999999,-0.900390625,-0.30859375,3.673828125,7756.88,25.875,-16.25,4.75
664,7768.8769999999995,-4.63671875,7.125,-0.9375,7766.871,-0.99609375,-0.333984375,3.830078125,7769.046,25.1875,-17.75,1.5
665,7774.319,-4.12890625,7.05859375,-0.78515625,7774.4400000000005,-1.06640625,-0.373046875,3.93359375,7774.396000000001,24.1875,-18.4375,3.75
666,7784.277999999999,-3.66015625,7.16796875,-0.77734375,7784.1990000000005,-1.173828125,-0.345703125,4.05078125,7784.429,23.75,-19.6875,0.4375
667,7806.357,-1.828125,7.87109375,-0.2578125,7804.247,-1.427734375,-0.291015625,4.0546875,7806.365000000001,22.4375,-21.4375,-2.0625
668,7814.247,-1.54296875,8.265625,0.09765625,7814.255,-1.443359375,-0.2265625,3.96875,7814.38,21.25,-22.125,0.3125
669,7824.2609999999995,-0.73828125,8.96875,0.5859375,7821.81,-1.3828125,-0.193359375,3.83984375,7824.066,19.75,-23.375,-0.125
670,7834.01,0.06640625,9.3046875,0.86328125,7831.848,-1.1796875,-0.333984375,3.5703125,7834.121999999999,19.375,-23.625,-1.375
671,7845.939,0.79296875,9.5,1.5234375,7844.57,-0.78125,-0.6953125,3.09375,7845.943,18.4375,-24.5,-2.4375
672,7861.972,0.44921875,9.38671875,2.26171875,7859.4400000000005,-0.2578125,-0.810546875,2.52734375,7861.777,17.875,-25.1875,-4.4375
673,7873.554999999999,-0.10546875,9.16015625,2.5390625,7871.703,0.181640625,-0.68359375,2.1015625,7873.668000000001,16.0625,-26.9375,-3.9375
674,7881.612999999999,-0.32421875,8.75,2.55859375,7879.314,0.4375,-0.587890625,1.92578125,7881.621,16.0625,-26.9375,-3.9375
675,7901.429,-1.12109375,8.10546875,1.97265625,7899.192,1.068359375,-0.271484375,1.765625,7901.522,14.9375,-27.1875,-5.0625
676,7911.967,-1.3203125,8.0625,1.24609375,7911.799,1.353515625,-0.06640625,1.912109375,7911.907,14.125,-27.625,-2.25
677,7921.199,-1.140625,8.27734375,0.53515625,7919.443,1.455078125,-0.044921875,2.078125,7921.202,13.0625,-27.625,-1.25
678,7936.692,0.46875,8.6640625,-0.23046875,7936.817,1.451171875,-0.072265625,2.314453125,7936.874000000001,12.5,-27.625,-1.125
679,7946.831,1.2734375,8.515625,-0.4609375,7946.894,1.349609375,-0.060546875,2.2265625,7946.973,11.625,-28.4375,0.3125
680,7956.795,1.3125,8.0078125,-0.57421875,7954.413,1.224609375,0.0,2.099609375,7956.724,11.375,-28.4375,0.375
681,7964.303,-1.00390625,8.2421875,-0.3359375,7964.128,1.060546875,0.0546875,2.04296875,7964.197,10.625,-28.1875,2.625
682,7974.205000000001,0.5859375,7.62890625,-0.32421875,7974.326,0.9140625,0.02734375,2.419921875,7974.488,9.875,-28.6875,2.8125
683,7984.441000000001,1.04296875,7.93359375,-0.34375,7984.249,0.71875,0.35546875,2.556640625,7984.472000000001,8.25,-28.625,6.5625
684,7991.901000000001,1.0546875,8.32421875,-0.44140625,7991.849,0.60546875,0.5078125,2.67578125,7991.8060000000005,6.8125,-29.25,8.125
685,8008.227,1.84765625,9.23046875,-0.5859375,8006.831,0.568359375,0.587890625,2.78125,8008.23,6.3125,-29.5,8.25
686,8033.797,2.44140625,10.80078125,-1.015625,8031.8009999999995,0.783203125,0.2734375,2.88671875,8033.802,3.625,-29.0625,13.0
687,8043.701,3.984375,11.171875,-1.3203125,8041.829999999999,0.857421875,0.10546875,2.78515625,8043.613,2.1875,-29.9375,11.9375
688,8061.723000000001,5.296875,11.69140625,-1.65625,8059.316000000001,0.833984375,-0.140625,2.21484375,8061.529,1.0,-29.5,14.25
689,8073.549999999999,5.1328125,12.02734375,-1.828125,8071.864,0.728515625,-0.12890625,1.6953125,8073.658,-0.6875,-30.375,16.0
690,8081.504000000001,5.19921875,12.13671875,-1.87890625,8079.369,0.6328125,-0.14453125,1.41796875,8081.313,-0.6875,-30.375,16.0
691,8096.89,5.7734375,12.02734375,-1.7890625,8096.852999999999,0.3359375,-0.10546875,0.818359375,8096.799000000001,-1.8125,-29.3125,15.5625
692,8109.05,5.8046875,11.60546875,-1.66796875,8106.824,0.16796875,0.04296875,0.416015625,8109.105,-1.25,-29.3125,16.8125
693,8114.428,5.53515625,11.45703125,-1.63671875,8114.356000000001,0.078125,0.138671875,0.125,8114.326,-2.25,-29.75,17.0
694,8124.276,4.69140625,11.1328125,-1.5234375,8124.3,-0.0078125,0.208984375,-0.091796875,8124.361000000001,-1.6875,-30.0,16.25
695,8134.338,4.4140625,10.828125,-1.4765625,8134.259,-0.00390625,0.2421875,-0.1796875,8134.330999999999,-2.0,-28.875,17.75
696,8144.311999999999,4.1484375,10.75,-1.62890625,8144.320000000001,0.025390625,0.28125,-0.22265625,8144.488000000001,-2.0625,-29.5,17.6875
697,8152.226000000001,4.1953125,10.82421875,-1.80078125,8151.9490000000005,0.04296875,0.24609375,-0.267578125,8151.932000000001,-1.8125,-29.125,17.6875
698,8171.8910000000005,4.8828125,10.703125,-2.15625,8171.897,0.041015625,0.103515625,-0.587890625,8171.805000000001,-1.8125,-29.5625,15.5625
699,8184.068,4.078125,10.41015625,-2.0,8181.893000000001,-0.021484375,0.078125,-0.8046875,8184.075999999999,-1.8125,-29.125,17.6875
700,8191.927,3.8515625,10.24609375,-1.97265625,8191.731000000001,-0.044921875,0.044921875,-0.9296875,8191.836,-1.8125,-29.5,17.6875
701,8201.848,3.484375,10.05859375,-1.93359375,8201.853,-0.029296875,0.009765625,-1.0078125,8201.85,-1.8125,-29.5,17.6875
702,8213.768,2.94921875,10.23828125,-2.10546875,8211.743,0.01953125,-0.033203125,-1.056640625,8213.881000000001,-0.6875,-29.0625,18.625
703,8223.671,3.12109375,10.39453125,-2.4140625,8221.818000000001,0.08203125,-0.142578125,-1.091796875,8223.583,-1.5,-29.5,16.875
704,8231.826,3.44921875,10.609375,-2.6796875,8229.391,0.12890625,-0.28125,-1.1796875,8231.833,-0.0625,-28.625,17.25
705,8241.645999999999,3.96484375,10.78125,-2.69140625,8239.546,0.154296875,-0.517578125,-1.365234375,8241.555,0.5,-29.0625,17.125
706,8251.455,3.95703125,10.73046875,-2.26171875,8249.243999999999,0.166015625,-0.78125,-1.60546875,8251.463,0.9375,-29.25,17.0
707,8261.929,3.41015625,10.78125,-1.703125,8262.128999999999,0.154296875,-1.0078125,-1.818359375,8262.1,1.6875,-29.0625,14.8125
708,8274.454,3.0078125,10.8125,-1.07421875,8274.359,0.048828125,-1.02734375,-1.875,8274.768999999998,2.75,-29.25,13.8125
709,8294.309,3.20703125,10.7734375,-0.5546875,8294.335000000001,-0.361328125,-0.43359375,-2.021484375,8294.43,3.4375,-29.25,15.0
710,8302.013,2.8046875,10.7421875,-0.52734375,8301.872,-0.537109375,-0.111328125,-2.12890625,8301.816,4.4375,-28.5625,14.8125
711,8314.28,2.48828125,10.56640625,-0.70703125,8314.304999999998,-0.73046875,0.2890625,-2.302734375,8314.431,5.3125,-28.375,13.25
712,8336.466,1.50390625,9.4921875,-0.8046875,8334.339,-0.6953125,0.59765625,-2.7734375,8336.489,6.9375,-28.1875,10.25
713,8346.34,0.61328125,9.15625,-1.08203125,8344.32,-0.564453125,0.6171875,-2.91796875,8346.448,7.625,-27.6875,13.3125
714,8360.331,0.546875,9.03515625,-1.703125,8360.688,-0.310546875,0.52734375,-2.955078125,8360.197,8.0625,-28.125,11.1875
715,8366.146,-0.52734375,9.45703125,-1.7890625,8364.381,-0.208984375,0.40234375,-2.9609375,8366.153,9.875,-27.25,10.1875
716,8371.909,-0.421875,9.62890625,-2.0390625,8371.83,-0.0546875,0.05078125,-2.974609375,8371.841999999999,10.25,-27.25,9.375
717,8383.929,1.234375,9.46484375,-2.05859375,8381.956,0.125,-0.30859375,-2.986328125,8383.841,10.9375,-26.4375,9.9375
718,8393.722,1.78125,9.125,-1.6484375,8391.997,0.26171875,-0.75390625,-3.14453125,8393.833,12.0,-26.375,9.6875
719,8401.884,1.953125,8.62109375,-1.08203125,8399.449,0.3359375,-0.9765625,-3.357421875,8401.889000000001,12.0,-26.375,9.6875
720,8417.06,0.21875,7.53515625,-0.39453125,8416.881,0.404296875,-1.3125,-3.892578125,8416.767,14.5625,-24.625,9.125
721,8431.395999999999,-2.5,7.25,0.2109375,8429.364,0.349609375,-1.134765625,-3.91796875,8431.465,15.375,-25.125,6.1875
722,8454.325,-2.5859375,7.98046875,-0.296875,8454.332,-0.03125,-0.517578125,-3.115234375,8454.454,18.9375,-22.6875,5.4375
723,8461.908,-2.0703125,8.1484375,-0.31640625,8461.907,-0.1484375,-0.396484375,-3.013671875,8461.911,20.0,-21.625,5.25
724,8470.969000000001,-1.9921875,8.390625,-0.26953125,8469.457,-0.2421875,-0.275390625,-2.94140625,8471.08,20.0,-21.625,5.25
725,8482.123,-2.0,8.5625,-0.19921875,8481.863000000001,-0.3125,-0.115234375,-2.916015625,8481.752,22.125,-20.0625,4.125
726,8506.484999999999,-1.37890625,7.859375,-0.515625,8504.332,-0.287109375,-0.21484375,-3.14453125,8506.597,22.6875,-19.25,3.4375
727,8520.587000000001,-2.5859375,7.10546875,-0.41015625,8520.744999999999,-0.291015625,-0.013671875,-3.4453125,8520.454000000002,23.25,-18.4375,3.3125
728,8526.356,-3.58203125,6.9765625,-0.39453125,8526.415,-0.306640625,0.111328125,-3.470703125,8526.363,24.5,-18.1875,3.0
729,8541.795,-5.984375,7.44140625,-0.66015625,8541.801,-0.34765625,0.51171875,-3.251953125,8542.131,24.4375,-17.3125,3.6875
730,8554.047,-6.05078125,8.46484375,-0.98828125,8551.921,-0.3828125,0.623046875,-3.056640625,8553.996,25.25,-15.8125,6.3125
731,8561.832,-5.19921875,8.92578125,-1.3984375,8561.837000000001,-0.38671875,0.763671875,-3.07421875,8561.966,25.25,-15.8125,6.3125
732,8581.925,-2.26171875,8.2890625,-1.859375,8579.385999999999,-0.205078125,0.39453125,-3.822265625,8581.731,27.5,-14.125,1.75
733,8603.467,-2.5390625,4.796875,-1.40625,8601.866,0.119140625,-0.298828125,-5.107421875,8603.476,28.625,-11.3125,3.5625
734,8611.865,-3.83984375,3.58984375,-1.08984375,8611.796999999999,0.17578125,-0.505859375,-5.302734375,8611.822999999999,28.1875,-9.4375,3.125
735,8626.792,-7.17578125,2.71875,-0.765625,8626.813,0.052734375,-0.60546875,-4.888671875,8626.982999999998,29.625,-7.9375,1.5
736,8636.927,-9.42578125,2.890625,-0.66015625,8636.886,-0.1796875,-0.505859375,-4.271484375,8636.858999999999,30.0,-7.0625,2.8125
737,8654.417000000001,-10.19140625,3.46875,-0.23828125,8654.542,-0.787109375,0.197265625,-3.29296875,8654.613,30.625,-4.5,2.75
738,8661.947,-9.03125,3.2578125,-0.18359375,8661.907,-1.029296875,0.552734375,-3.203125,8661.953000000001,30.8125,-3.6875,0.75
739,8674.33,-7.1328125,2.14453125,-0.5078125,8674.452000000001,-1.244140625,0.94140625,-3.337890625,8674.581,30.375,-3.0,2.875
740,8682.023,-6.71875,1.24609375,-0.71875,8681.854,-1.265625,1.146484375,-3.50390625,8681.926000000001,29.8125,-1.9375,3.6875
741,8691.901,-8.18359375,0.77734375,-0.87109375,8691.809,-1.2421875,1.154296875,-3.515625,8691.922,29.8125,-1.9375,3.6875
742,8720.204000000002,-8.7890625,1.71484375,-0.640625,8719.59,-1.048828125,0.609375,-2.5546875,8720.179,30.0,0.875,7.875
743,8731.973,-7.08984375,1.37890625,-0.34375,8731.930999999999,-0.943359375,0.544921875,-2.623046875,8731.904,29.4375,0.875,8.0
744,8741.889000000001,-6.52734375,0.515625,-0.15234375,8740.171,-0.837890625,0.591796875,-2.8125,8741.960000000001,28.6875,2.5625,8.875
745,8753.698,-8.07421875,-0.39453125,-0.27734375,8751.999,-0.611328125,0.92578125,-3.138671875,8753.704000000002,29.125,3.4375,9.5625
746,8761.673999999999,-9.515625,-0.9296875,-0.35546875,8759.438,-0.43359375,1.02734375,-3.171875,8761.549,28.4375,4.5,9.0625
747,8771.511999999999,-11.33984375,-1.0625,-0.65234375,8769.456999999999,-0.173828125,1.0390625,-3.044921875,8771.519,28.3125,4.75,10.4375
748,8786.934000000001,-12.3515625,-1.04296875,-1.08203125,8786.855,0.38671875,0.615234375,-2.4140625,8786.811,26.875,6.0,12.8125
749,8809.172999999999,-9.28515625,-1.609375,-1.1796875,8807.01,0.890625,-0.072265625,-1.9609375,8809.232,27.3125,7.0625,11.4375
750,8816.864000000001,-9.14453125,-1.76171875,-1.1796875,8816.869,0.96875,-0.173828125,-1.853515625,8816.834,26.3125,8.0625,11.0625
751,8821.788,-9.47265625,-1.89453125,-1.12890625,8821.844000000001,0.962890625,-0.154296875,-1.796875,8821.77,26.8125,8.125,11.625
752,8832.167,-10.22265625,-2.2109375,-1.015625,8831.887,0.857421875,0.033203125,-1.59765625,8831.97,26.3125,9.1875,11.75
753,8844.444,-11.078125,-2.35546875,-1.07421875,8844.453,0.658203125,0.369140625,-1.181640625,8844.431999999999,26.375,8.9375,11.125
754,8864.581,-11.63671875,-1.7890625,-1.80859375,8864.39,0.37890625,0.697265625,-0.322265625,8864.514,25.375,9.5625,11.375
755,8876.409000000001,-10.69140625,-1.140625,-2.47265625,8876.480000000001,0.345703125,0.603515625,-0.03125,8876.483,25.6875,10.6875,13.3125
756,8889.405999999999,-9.609375,-0.546875,-2.99609375,8889.328000000001,0.322265625,0.32421875,0.099609375,8889.461000000001,25.0625,10.1875,12.125
757,8903.982,-9.50390625,-0.296875,-3.36328125,8901.809,0.302734375,0.068359375,-0.0078125,8903.988,25.6875,10.4375,13.3125
758,8911.826,-8.66015625,-0.5546875,-3.12109375,8911.898000000001,0.27734375,-0.26953125,-0.1328125,8911.969,25.6875,10.4375,13.3125
759,8923.785,-9.3828125,-0.8046875,-2.890625,8922.031,0.203125,-0.34765625,-0.18359375,8923.734,26.0625,10.0,11.875
760,8932.121000000001,-9.64453125,-0.95703125,-2.59375,8931.829,0.064453125,-0.416015625,-0.16796875,8931.898000000001,25.25,11.0625,10.125
761,8951.506,-10.03515625,-1.16015625,-1.97265625,8949.522,-0.173828125,-0.392578125,0.03125,8951.514,25.9375,10.4375,10.625
762,8963.375,-10.01953125,-0.7578125,-1.6171875,8962.128999999999,-0.310546875,-0.361328125,0.19921875,8963.385,25.8125,10.1875,9.3125
763,8972.051000000001,-9.94921875,-0.3046875,-1.4375,8972.241,-0.36328125,-0.306640625,0.32421875,8971.947999999999,25.5,10.1875,10.0
764,8981.173999999999,-9.078125,0.171875,-1.40625,8979.553,-0.38671875,-0.349609375,0.353515625,8981.182999999999,26.125,10.1875,11.25
765,8994.588,-8.2265625,0.61328125,-1.3515625,8994.395,-0.3984375,-0.447265625,0.20703125,8994.502,26.0625,10.4375,11.875
766,9014.723,-8.33984375,0.44921875,-1.1015625,9014.398,-0.384765625,-0.505859375,-0.193359375,9014.428,25.75,9.9375,9.9375
767,9024.453,-8.8203125,0.078125,-0.98828125,9024.578,-0.353515625,-0.50390625,-0.35546875,9024.744999999999,27.5625,9.8125,9.5
768,9034.346,-9.51953125,-0.078125,-0.8046875,9034.471,-0.310546875,-0.486328125,-0.380859375,9034.526,26.5,10.1875,7.8125
769,9044.464,-9.296875,-0.1328125,-0.7578125,9041.929,-0.27734375,-0.513671875,-0.357421875,9044.472000000002,26.5,10.1875,9.75
770,9064.306999999999,-7.8828125,-0.0078125,-0.44140625,9061.92,-0.095703125,-0.66796875,-0.4296875,9064.314,26.875,10.625,9.0625
771,9074.09,-7.8828125,-0.10546875,-0.3828125,9071.883,-0.029296875,-0.599609375,-0.595703125,9074.096000000001,26.9375,10.625,8.3125
772,9084.075,-9.52734375,0.0390625,-0.34375,9082.068,-0.0234375,-0.529296875,-0.693359375,9084.079,26.5625,10.5625,7.1875
773,9103.865000000002,-7.59765625,0.01953125,0.1640625,9101.998,0.048828125,-0.7109375,-0.802734375,9103.778,26.5625,10.8125,7.1875
774,9111.73,-7.546875,0.10546875,0.31640625,9109.443000000001,0.07421875,-0.703125,-0.9609375,9111.76,27.5,11.875,5.625
775,9121.619,-7.4140625,0.10546875,0.7578125,9119.619,0.12890625,-0.654296875,-1.177734375,9121.625,27.75,11.625,5.5625
776,9133.515,-7.421875,0.05859375,1.265625,9131.968,0.23828125,-0.662109375,-1.421875,9133.409,26.25,11.375,5.1875
777,9142.043,-7.78125,0.71875,1.234375,9142.23,0.333984375,-0.58203125,-1.59765625,9142.053,26.875,12.25,4.4375
778,9161.911999999998,-7.046875,0.31640625,1.58984375,9162.035,0.439453125,-0.189453125,-2.453125,9161.983,26.0625,13.3125,5.3125
779,9172.226999999999,-6.48828125,-0.26953125,1.75390625,9171.947,0.568359375,-0.05859375,-2.8671875,9171.829000000002,25.5625,12.875,5.4375
780,9187.028,-6.796875,-1.51171875,1.4765625,9184.545999999998,0.7890625,0.220703125,-3.34375,9186.833999999999,25.25,15.4375,4.375
781,9196.703,-7.203125,-2.15625,1.12109375,9194.496,1.01953125,0.34765625,-3.572265625,9196.815,24.6875,15.5625,2.5625
782,9208.639,-7.96875,-2.76953125,0.5546875,9206.99,1.279296875,0.421875,-3.8125,9208.462000000001,25.5625,16.0,3.625
783,9221.884,-7.640625,-3.390625,0.0,9221.926,1.52734375,0.21875,-4.015625,9221.979,23.375,18.3125,1.625
784,9234.282000000001,-5.95703125,-4.703125,-0.5859375,9232.039,1.626953125,0.076171875,-4.212890625,9234.291000000001,21.5,19.125,2.75
785,9250.045,-6.06640625,-5.87109375,-1.25390625,9249.530999999999,1.5078125,-0.080078125,-4.455078125,9250.018,21.6875,20.125,1.5
786,9271.841999999999,-6.8671875,-6.9609375,-2.10546875,9269.474,0.6953125,0.10546875,-4.46484375,9271.953,19.125,23.0,-2.4375
787,9281.841999999999,-6.3984375,-7.59765625,-2.55859375,9279.66,0.111328125,0.216796875,-4.359375,9281.648000000001,19.125,23.0,-2.4375
788,9293.688,-6.140625,-8.15625,-3.02734375,9291.928,-0.703125,0.39453125,-4.19921875,9293.631,15.9375,23.8125,-0.25
789,9301.636999999999,-6.3203125,-8.390625,-3.21875,9299.5,-1.212890625,0.5,-4.12890625,9301.443000000001,15.9375,23.8125,-0.25
790,9311.449,-6.1015625,-8.6015625,-3.3984375,9309.434,-1.85546875,0.548828125,-3.900390625,9311.458999999999,13.0625,24.875,1.75
791,9334.587000000001,-5.2578125,-9.4140625,-2.98828125,9334.44,-3.064453125,0.453125,-3.4765625,9334.51,10.25,25.75,7.8125
792,9347.025,-5.41015625,-9.71484375,-2.375,9346.884,-3.298828125,0.328125,-3.21484375,9347.172999999999,9.875,26.625,11.3125
793,9357.056,-5.421875,-9.90625,-1.76171875,9354.491,-3.298828125,0.26171875,-3.060546875,9356.927000000001,7.375,25.75,13.875
794,9364.417,-5.66796875,-9.875,-1.4765625,9364.543,-3.177734375,0.111328125,-2.82421875,9364.603000000001,6.9375,26.25,16.0625
795,9372.318,-5.9296875,-9.69140625,-0.9296875,9371.946,-2.96875,-0.103515625,-2.62890625,9372.05,6.0,26.0,18.25
796,9384.372000000001,-5.70703125,-9.125,-0.546875,9384.498000000001,-2.501953125,-0.3046875,-2.244140625,9384.553,4.5625,26.4375,20.0
797,9402.135,-4.15625,-8.5859375,-0.25,9401.943,-1.9140625,-0.326171875,-2.0,9402.124,3.4375,26.25,23.625
798,9414.413,-3.91796875,-7.80078125,-0.21875,9411.839,-1.6328125,-0.12109375,-2.0390625,9414.220000000001,1.125,25.8125,26.75
799,9430.097,-2.99609375,-7.4375,-0.296875,9429.568,-1.15234375,0.404296875,-2.4140625,9430.056,0.625,26.6875,29.5625
800,9442.043,-1.6171875,-8.140625,-0.2578125,9439.512,-0.796875,0.638671875,-2.703125,9441.914999999999,-0.1875,25.875,29.8125
801,9452.321,-3.1328125,-8.28125,-0.49609375,9452.027,-0.326171875,0.890625,-2.9375,9452.152999999998,-0.9375,25.875,30.0
802,9463.698,-3.29296875,-8.71875,-0.66015625,9462.071,0.03125,1.08984375,-2.916015625,9463.810000000001,-2.625,25.875,32.375
803,9471.653999999999,-3.1015625,-8.671875,-0.71875,9469.344,0.32421875,1.2265625,-3.01171875,9471.678,-3.125,26.6875,32.5625
804,9497.086,0.5078125,-10.07421875,-0.79296875,9497.008,1.412109375,1.498046875,-3.365234375,9497.025000000001,-5.75,26.1875,31.1875
805,9506.975,-0.19921875,-10.6640625,-0.7265625,9507.036,1.9296875,1.32421875,-3.388671875,9506.964,-6.75,27.0,31.5
806,9519.012,-0.78515625,-11.578125,-0.91015625,9516.992,2.384765625,1.1640625,-3.283203125,9519.021,-8.1875,25.875,28.4375
807,9524.523000000001,-0.8125,-11.94140625,-1.12109375,9524.547,2.62109375,1.021484375,-3.14453125,9524.775,-8.0,27.125,24.375
808,9534.652,-1.58203125,-12.35546875,-2.0390625,9534.656,2.701171875,0.76953125,-2.814453125,9534.563,-9.0,26.625,24.0
809,9556.546,-1.6484375,-12.0859375,-3.5546875,9554.503999999999,2.056640625,0.599609375,-1.822265625,9556.551000000001,-10.5,27.25,22.375
810,9564.799,-1.07421875,-11.64453125,-3.79296875,9564.527999999998,1.484375,0.6328125,-1.37890625,9564.707999999999,-12.125,26.9375,20.8125
811,9582.0,-1.1015625,-10.52734375,-3.9921875,9582.0,0.51953125,0.5234375,-0.865234375,9582.107,-12.9375,26.6875,18.875
812,9594.258,0.14453125,-9.84765625,-3.88671875,9592.029999999999,0.06640625,0.298828125,-0.755859375,9594.404,-11.875,27.3125,16.0625
813,9606.069,0.36328125,-9.51953125,-3.46875,9604.698,-0.361328125,0.009765625,-0.767578125,9606.072,-12.9375,27.25,14.3125
814,9611.993,0.515625,-9.5390625,-3.34375,9609.68,-0.533203125,-0.0390625,-0.8125,9611.998,-12.9375,27.25,14.3125
815,9623.969000000001,0.515625,-9.703125,-2.671875,9621.903,-0.859375,-0.244140625,-0.904296875,9624.081,-13.125,26.6875,18.3125
816,9631.814,0.375,-10.03515625,-2.1171875,9629.383,-0.982421875,-0.294921875,-0.93359375,9631.89,-13.0625,25.8125,14.9375
817,9641.769,-0.3828125,-10.6640625,-0.78515625,9639.528,-1.06640625,-0.328125,-0.89453125,9641.664,-14.0,25.625,19.875
818,9653.692,-0.4296875,-11.1875,0.48046875,9651.932,-0.84765625,-0.271484375,-0.638671875,9653.698999999999,-14.0625,26.625,17.9375
819,9674.487,0.5546875,-10.35546875,-0.65234375,9674.492,-0.201171875,-0.0234375,-0.15234375,9674.619,-14.5625,26.0625,20.0
820,9684.672,0.5078125,-9.80078125,-1.25390625,9684.496,-0.087890625,-0.0078125,-0.078125,9684.521,-15.625,26.0625,20.875
821,9694.549,0.96875,-9.5859375,-1.9453125,9694.675,-0.060546875,-0.02734375,-0.021484375,9694.738,-15.25,25.875,22.125
822,9704.481,1.25390625,-9.4609375,-2.26953125,9704.485999999999,-0.103515625,-0.013671875,-0.103515625,9704.591,-15.3125,26.5,22.8125
823,9726.613000000001,1.1796875,-10.359375,-1.5703125,9724.383,-0.173828125,-0.025390625,-0.29296875,9726.625,-15.375,26.6875,23.5625
824,9732.136,0.73828125,-10.50390625,-1.3515625,9731.871,-0.13671875,0.0234375,-0.27734375,9732.039,-15.0,26.0625,22.125
825,9742.07,0.59375,-11.16015625,-0.9765625,9742.077,-0.048828125,0.115234375,-0.111328125,9741.983,-15.0,26.0625,22.125
826,9754.439,0.4609375,-11.375,-1.58984375,9752.094,0.0546875,0.232421875,0.07421875,9754.448,-15.75,26.3125,22.3125
827,9764.381,0.2890625,-11.0078125,-2.22265625,9761.954,0.10546875,0.1875,0.287109375,9764.388,-15.4375,25.625,21.5625
828,9774.251,0.31640625,-10.1875,-2.48828125,9772.041,0.0703125,0.1015625,0.431640625,9774.26,-15.5,26.6875,22.25
829,9784.121000000001,0.34375,-9.83984375,-2.8359375,9781.908,0.005859375,0.037109375,0.478515625,9784.126,-15.8125,26.5,22.9375
830,9791.940999999999,0.11328125,-9.63671875,-2.890625,9789.709,-0.05859375,0.037109375,0.43359375,9792.051000000001,-14.8125,25.625,22.6875
831,9812.12,0.66015625,-10.1484375,-2.453125,9811.943,-0.0703125,-0.26171875,0.1953125,9812.069,-15.375,25.4375,22.75
832,9821.695,0.1640625,-10.6953125,-1.58203125,9819.675,0.04296875,-0.408203125,0.17578125,9821.716999999999,-14.8125,26.9375,22.6875
833,9832.252,0.25,-11.125,-0.95703125,9832.085,0.2578125,-0.47265625,0.291015625,9832.214,-14.5625,26.5,22.625
834,9841.544,0.11328125,-11.328125,-0.7578125,9839.728,0.341796875,-0.408203125,0.427734375,9841.453,-14.25,26.9375,22.5625
835,9862.008,-0.26953125,-10.65625,-1.71484375,9861.931,0.3671875,0.009765625,0.76171875,9862.066,-14.0625,26.125,22.5
836,9872.220000000001,-0.3046875,-10.35546875,-2.31640625,9872.077000000001,0.25,0.021484375,0.859375,9872.021999999999,-14.1875,26.6875,19.1875
837,9887.0,-1.16015625,-10.1953125,-2.453125,9884.506,0.16796875,-0.1015625,0.984375,9886.806,-13.375,26.125,23.0625
838,9894.814,-1.33203125,-10.09375,-2.60546875,9894.615,0.111328125,-0.275390625,1.1171875,9894.523,-13.5,26.3125,21.75
839,9904.593,-1.140625,-9.87890625,-2.87109375,9904.701,0.03515625,-0.490234375,1.2265625,9904.868,-12.9375,26.5,21.625
840,9914.568,-0.69921875,-9.86328125,-2.43359375,9914.573,-0.048828125,-0.59765625,1.330078125,9914.553,-12.75,27.1875,22.25
841,9924.356,-0.78515625,-10.34765625,-1.83984375,9922.021,-0.126953125,-0.603515625,1.275390625,9924.364000000001,-11.5,27.625,22.6875
842,9940.8,-0.69140625,-11.80859375,-0.74609375,9939.581,-0.1015625,-0.38671875,1.416015625,9940.31,-11.625,26.5,20.625
843,9952.188,-1.24609375,-13.0,-0.69140625,9952.092,0.06640625,-0.228515625,1.873046875,9952.178,-11.5625,26.75,22.625
844,9972.0,-1.75390625,-12.4453125,-2.73828125,9969.678,0.025390625,-0.0078125,2.525390625,9972.006000000001,-10.1875,26.8125,21.5625
845,9983.759,-3.765625,-10.2421875,-3.07421875,9982.073,-0.126953125,-0.154296875,2.724609375,9983.67,-9.3125,27.875,22.75
846,9991.799,-2.8828125,-9.59765625,-3.06640625,9989.519,-0.1015625,-0.47265625,2.884765625,9991.804,-9.3125,27.875,22.75
847,10011.67,-1.55078125,-8.546875,-2.7109375,10009.662,0.072265625,-1.26953125,2.73828125,10011.676,-5.9375,27.75,21.3125
848,10022.377,-1.80078125,-8.5234375,-2.5,10022.205,0.037109375,-1.451171875,2.4375,10022.111,-4.6875,28.375,21.0
849,10037.005000000001,-1.015625,-9.28125,-2.0859375,10036.91,-0.166015625,-1.33203125,2.130859375,10037.196,-4.0625,27.75,22.1875
850,10046.988000000001,-1.58203125,-10.40625,-1.8203125,10044.596,-0.263671875,-1.2109375,2.046875,10047.06,-2.5,27.625,21.8125
851,10064.766000000001,-3.58203125,-11.80859375,-1.7890625,10064.628,-0.478515625,-1.064453125,2.416015625,10064.652,-2.125,27.4375,22.3125
852,10074.447,-5.07421875,-11.765625,-1.609375,10074.57,-0.546875,-1.1328125,2.81640625,10074.627,-1.0,27.1875,21.3125
853,10082.117999999999,-6.2265625,-11.03515625,-1.265625,10082.074,-0.5234375,-1.25390625,3.18359375,10082.124,0.125,26.5625,22.375
854,10092.213,-4.77734375,-10.0078125,-0.77734375,10092.02,-0.439453125,-1.37109375,3.5390625,10092.143,0.125,26.5625,22.375
855,10104.496,-3.67578125,-8.22265625,-0.5859375,10101.942,-0.318359375,-1.30078125,3.599609375,10104.305,2.1875,27.0625,21.25
856,10120.403,-3.08203125,-7.12109375,-0.25,10119.673999999999,-0.154296875,-1.060546875,3.359375,10120.36,4.0,26.625,20.8125
857,10132.068000000001,-2.40234375,-7.25,-0.01953125,10129.673999999999,-0.078125,-0.876953125,3.12109375,10132.039,5.375,27.0625,19.125
858,10143.989,-2.90234375,-8.421875,-0.10546875,10143.997000000001,-0.05859375,-0.5,2.921875,10143.905999999999,7.1875,25.25,20.625
859,10153.768,-4.703125,-9.609375,-0.73828125,10152.298999999999,-0.10546875,-0.3359375,2.859375,10153.878999999999,8.125,25.4375,19.0625
860,10171.694000000001,-7.98828125,-10.9921875,-1.3984375,10169.595,-0.30078125,-0.357421875,3.47265625,10171.5,10.5,24.875,19.75
861,10182.152,-8.7421875,-10.9140625,-1.28515625,10182.361,-0.529296875,-0.498046875,4.330078125,10182.33,10.0625,23.8125,21.125
862,10192.102,-8.2265625,-10.4453125,-0.8125,10192.18,-0.6875,-0.5546875,5.06640625,10192.012999999999,12.1875,23.25,19.9375
863,10206.994999999999,-7.51953125,-9.05859375,0.0078125,10207.117999999999,-0.77734375,-0.501953125,5.8984375,10207.172999999999,13.4375,22.8125,19.625
864,10227.140000000001,-5.36328125,-6.921875,1.33203125,10224.706,-0.41796875,-0.353515625,6.32421875,10227.010999999999,16.3125,21.0,20.1875
865,10234.594,-4.4921875,-6.50390625,1.33984375,10234.599,0.025390625,-0.173828125,6.318359375,10234.571,17.4375,19.5,18.5
866,10244.7,-4.59765625,-5.69921875,1.1015625,10244.730000000001,0.5859375,-0.037109375,6.158203125,10244.722,19.3125,18.5,19.375
867,10254.628999999999,-6.5390625,-4.43359375,0.82421875,10254.636,1.177734375,-0.107421875,6.169921875,10254.817,20.5625,16.9375,16.875
868,10279.591,-4.39453125,-2.05859375,-0.0078125,10279.701,2.314453125,-0.537109375,5.978515625,10280.056,23.4375,14.3125,16.75
869,10292.23,-4.0078125,-1.3515625,-0.046875,10291.991,2.6015625,-0.41796875,5.599609375,10292.018,24.4375,13.1875,11.8125
870,10304.064,-5.11328125,0.2109375,-0.19921875,10302.143,2.716796875,-0.08203125,5.271484375,10304.177,26.9375,10.625,8.4375
871,10323.82,-4.8359375,1.734375,-1.00390625,10322.133,2.60546875,0.392578125,4.091796875,10323.931,27.8125,8.5,6.75
872,10331.713,-4.8515625,2.2109375,-1.703125,10329.817000000001,2.49609375,0.529296875,3.693359375,10331.719,27.8125,8.5,6.75
873,10341.765000000001,-5.49609375,2.8359375,-2.48046875,10339.648000000001,2.263671875,0.66796875,3.234375,10341.571,27.8125,8.5,6.75
874,10367.082,-3.99609375,2.9609375,-3.45703125,10367.203,1.28125,0.578125,1.9140625,10367.411,28.8125,5.75,8.375
875,10372.207,-5.51171875,3.07421875,-3.6015625,10372.222000000002,1.044921875,0.474609375,1.650390625,10372.213,29.125,4.5,7.625
876,10381.211000000001,-7.30859375,2.8828125,-3.28515625,10379.894999999999,0.6796875,0.482421875,1.3671875,10381.321,29.125,4.5,7.625
877,10392.518,-9.11328125,2.671875,-3.19921875,10392.182,0.1171875,0.517578125,1.2109375,10392.217,29.125,4.5,9.625
878,10404.657000000001,-9.09765625,2.5078125,-2.87109375,10404.616,-0.26171875,0.525390625,1.228515625,10404.645999999999,29.0625,4.0625,8.25
879,10426.816,-8.87890625,2.7109375,-2.69140625,10424.718,-0.517578125,0.19921875,1.23046875,10426.82,28.6875,3.1875,8.9375
880,10438.800000000001,-8.703125,2.890625,-2.61328125,10437.115,-0.541015625,-0.142578125,1.19921875,10438.822,28.3125,3.1875,7.75
881,10464.264,-8.67578125,3.58203125,-2.0,10462.243,-0.740234375,-0.330078125,1.087890625,10464.373,28.5625,1.5625,9.625
882,10474.178,-6.8671875,3.53515625,-1.80859375,10472.17,-0.8203125,-0.25,0.9921875,10474.286,28.875,1.125,8.75
883,10484.082,-9.08984375,4.25390625,-1.41796875,10482.11,-0.8359375,-0.13671875,0.837890625,10484.085000000001,28.75,1.0625,7.5625
884,10491.962,-9.03515625,4.203125,-1.2265625,10489.594000000001,-0.830078125,-0.234375,0.73046875,10492.07,29.0,1.0625,8.125
885,10501.851,-7.89453125,4.01171875,-0.79296875,10499.834,-0.802734375,-0.283203125,0.5625,10501.857,29.0,1.0625,8.125
886,10513.74,-8.203125,3.8515625,-0.52734375,10512.223,-0.6796875,-0.298828125,0.365234375,10513.851,28.75,1.0625,7.5625
887,10522.171999999999,-8.86328125,3.765625,-0.26953125,10522.205,-0.5859375,-0.28515625,0.275390625,10522.148,29.625,0.25,8.5625
888,10532.218,-9.24609375,3.5625,0.078125,10532.209,-0.49609375,-0.166015625,0.306640625,10532.177000000001,29.4375,0.6875,8.0
889,10543.419,-9.421875,3.09375,-0.0390625,10542.161,-0.373046875,0.033203125,0.306640625,10543.427,29.625,-0.1875,5.9375
890,10552.210000000001,-9.8359375,2.890625,-0.4296875,10552.166,-0.21875,0.126953125,0.4296875,10552.236,29.6875,-0.1875,7.875
891,10561.268,-10.17578125,2.86328125,-0.765625,10560.077,-0.10546875,0.12890625,0.576171875,10561.161,29.6875,-0.1875,7.875
892,10582.331,-9.25,3.62890625,-1.84765625,10582.055,0.078125,-0.072265625,0.978515625,10582.038,28.0625,-0.5625,11.625
893,10597.037,-7.72265625,4.3203125,-1.92578125,10594.635,-0.005859375,-0.1796875,0.94921875,10596.841,29.125,-1.4375,8.0
894,10614.592,-8.25390625,4.1640625,-1.4453125,10612.07,-0.189453125,-0.193359375,0.62109375,10614.597,29.125,-0.8125,8.0
895,10622.229000000001,-8.515625,3.90625,-1.1796875,10622.238,-0.25,-0.22265625,0.5546875,10622.221,29.125,-0.8125,8.0
896,10642.238000000001,-9.1796875,2.82421875,-0.7265625,10642.2,-0.19921875,-0.2734375,0.720703125,10642.168,28.625,-1.4375,8.0625
897,10662.164,-10.0625,2.8046875,-0.44140625,10659.725,-0.126953125,-0.30078125,1.291015625,10662.127,29.0625,-1.4375,6.625
898,10672.077,-9.9609375,3.3515625,-0.4609375,10669.732,-0.126953125,-0.26171875,1.68359375,10671.881000000001,29.0625,-1.4375,6.625
899,10683.899,-9.07421875,4.4140625,-0.71875,10682.235,-0.17578125,-0.14453125,2.095703125,10683.848,29.375,-2.375,5.125
900,10691.773,-8.3203125,5.0,-0.66015625,10689.771999999999,-0.19921875,-0.1015625,2.21484375,10691.779999999999,29.375,-4.0,5.0625
901,10702.3,-8.12109375,5.40234375,-0.49609375,10702.133,-0.22265625,-0.0078125,2.15234375,10702.159,29.5,-4.4375,6.375
902,10721.451000000001,-6.5234375,5.0859375,-0.48828125,10719.967,-0.1328125,0.1484375,1.841796875,10721.458999999999,29.6875,-5.9375,6.25
903,10734.555999999999,-6.82421875,4.453125,-0.53515625,10734.58,0.076171875,0.056640625,1.603515625,10734.653,28.6875,-5.9375,6.5
904,10742.324,-7.1484375,3.8671875,-0.375,10742.183,0.19140625,0.001953125,1.619140625,10742.13,28.1875,-6.375,6.625
905,10757.091,-8.73828125,3.88671875,-0.2578125,10754.813,0.380859375,-0.05859375,1.96484375,10757.096000000001,28.375,-7.625,6.5
906,10777.259,-9.0078125,5.16015625,-0.375,10777.275,0.58203125,0.16796875,2.818359375,10777.288,28.5625,-8.25,7.1875
907,10784.692,-7.90234375,5.23828125,-0.46875,10784.815999999999,0.595703125,0.23828125,3.099609375,10784.873,28.75,-8.4375,7.75
908,10792.393,-6.53125,5.49609375,-0.71875,10792.292,0.55078125,0.306640625,3.28125,10792.379,27.6875,-9.1875,6.0
909,10814.438,-5.57421875,6.01953125,-1.109375,10812.236,0.455078125,0.62109375,3.349609375,10814.364,26.3125,-11.25,8.8125
910,10822.221000000001,-3.70703125,5.578125,-1.03515625,10822.226999999999,0.404296875,0.6171875,3.265625,10822.33,27.125,-12.3125,7.9375
911,10832.168,-5.16015625,6.05078125,-1.51171875,10832.264000000001,0.37890625,0.451171875,3.1875,10832.201,25.375,-12.8125,8.375
912,10844.084,-5.49609375,6.140625,-2.01953125,10844.067000000001,0.341796875,0.560546875,3.080078125,10844.094000000001,24.375,-12.75,10.625
913,10862.259,-5.296875,6.9375,-2.328125,10862.276,0.248046875,0.3515625,3.400390625,10862.105,24.1875,-14.5,9.9375
914,10872.377,-4.56640625,7.4296875,-2.40234375,10872.211,0.2890625,0.115234375,3.482421875,10872.436,23.5625,-16.0,10.6875
915,10883.601999999999,-3.41796875,7.8671875,-2.2890625,10882.244,0.3046875,-0.103515625,3.494140625,10883.608,23.25,-16.625,10.6875
916,10902.082,-3.9375,8.78125,-2.35546875,10902.188,0.345703125,-0.26171875,3.173828125,10902.183,21.625,-18.3125,12.375
917,10917.146,-2.9609375,8.40625,-1.78125,10914.692000000001,0.28515625,-0.5390625,3.2265625,10917.154,20.4375,-18.125,14.0625
918,10926.966999999999,-2.01953125,8.1171875,-1.75390625,10924.598,0.16015625,-0.482421875,3.1484375,10927.038,20.25,-19.5625,12.6875
919,10937.596,-2.43359375,8.3203125,-1.6171875,10937.324999999999,-0.083984375,-0.208984375,2.9296875,10937.397,19.6875,-19.8125,10.8125
920,10954.643,-1.72265625,8.3125,-1.40625,10954.648000000001,-0.431640625,0.21875,2.669921875,10954.759,17.8125,-21.3125,11.8125
921,10964.772,-1.37890625,8.375,-1.2734375,10962.241,-0.54296875,0.365234375,2.548828125,10964.776,17.75,-21.5625,10.5
922,10974.649,-1.7734375,8.6484375,-1.08984375,10972.331,-0.55859375,0.423828125,2.443359375,10974.657000000001,16.9375,-22.5625,15.3125
923,10990.758,-1.53125,8.984375,-0.99609375,10989.678,-0.392578125,0.25390625,2.5234375,10990.364,15.25,-22.0625,12.4375
924,11004.317000000001,-0.96875,8.9140625,-0.8125,11002.331,-0.21875,0.03125,2.5390625,11004.324999999999,14.5625,-23.5625,9.1875
925,11016.032,-0.6796875,8.73828125,-0.86328125,11014.716,-0.13671875,-0.080078125,2.466796875,11015.936,14.5,-23.75,9.9375
926,11022.251,-0.69140625,8.7890625,-0.95703125,11022.16,-0.166015625,0.021484375,2.478515625,11022.168000000001,13.0,-25.0625,9.5
927,11041.815,0.5078125,9.01953125,-0.86328125,11039.833,-0.33203125,0.35546875,2.53125,11041.822,11.8125,-25.0625,11.8125
928,11053.676,-0.21875,9.43359375,-0.82421875,11052.396,-0.33203125,0.583984375,2.4375,11053.682,11.375,-25.9375,13.1875
929,11067.287,-0.1640625,9.4609375,-0.86328125,11067.213,-0.109375,0.34765625,2.564453125,11067.225,10.3125,-25.5625,11.5
930,11077.146,1.5625,9.38671875,-1.04296875,11077.222000000002,0.0625,0.2578125,2.4140625,11077.135,9.875,-26.625,12.9375
931,11089.196,1.16015625,9.67578125,-1.234375,11087.219,0.212890625,0.115234375,2.21875,11089.205,9.125,-26.1875,13.125
932,11097.135,1.16015625,9.73046875,-1.29296875,11094.688,0.30859375,-0.01953125,2.1640625,11097.143,8.5625,-27.0,13.875
933,11116.866999999998,0.421875,9.39453125,-1.359375,11114.74,0.541015625,-0.234375,1.810546875,11116.872000000001,6.75,-27.0625,14.3125
934,11126.846000000001,1.9140625,9.01171875,-1.28515625,11124.827,0.640625,-0.47265625,2.267578125,11126.851,6.125,-27.6875,15.8125
935,11135.107,1.8671875,9.25390625,-1.12890625,11134.661,0.62109375,-0.38671875,2.306640625,11134.816,5.5,-27.6875,16.5625
936,11142.203,2.18359375,9.3125,-1.16015625,11142.154,0.576171875,-0.22265625,2.310546875,11142.163999999999,4.3125,-27.3125,16.25
937,11164.545,2.796875,9.52734375,-1.45703125,11162.198999999999,0.4296875,0.130859375,2.21484375,11164.412,3.625,-27.5,17.75
938,11174.775,1.87890625,9.88671875,-1.8671875,11174.708,0.37890625,0.47265625,1.939453125,11174.747,2.0625,-28.375,18.75
939,11184.232,2.14453125,9.77734375,-2.03125,11182.251,0.39453125,0.134765625,2.216796875,11184.242,2.0625,-27.9375,18.75
940,11202.106,3.90625,10.15625,-2.09765625,11199.969,0.353515625,0.099609375,2.166015625,11201.976999999999,-0.5625,-28.625,20.125
941,11213.888,4.078125,10.59765625,-2.1171875,11212.220000000001,0.3046875,0.1328125,2.068359375,11213.891,-0.4375,-28.375,21.3125
942,11222.256,4.671875,10.77734375,-2.14453125,11222.187999999998,0.251953125,0.220703125,1.9140625,11222.231000000002,-1.4375,-28.8125,21.5625
943,11232.343,5.4296875,11.01171875,-2.09765625,11232.332,0.23046875,0.234375,1.724609375,11232.358,-1.625,-27.9375,21.0
944,11247.247,5.8515625,11.5703125,-2.10546875,11247.172,0.2265625,0.13671875,1.22265625,11247.538999999999,-3.0625,-28.625,23.3125
945,11267.253999999999,6.12890625,11.62109375,-2.0703125,11264.967,0.287109375,-0.08203125,0.4140625,11267.329,-2.75,-28.1875,22.625
946,11274.677,5.8984375,11.4453125,-2.05078125,11274.699,0.271484375,-0.115234375,-0.080078125,11274.926000000001,-4.0625,-29.0625,25.5625
947,11282.323,5.53515625,10.98046875,-2.0703125,11282.248,0.259765625,-0.0859375,-0.38671875,11282.132000000001,-3.5625,-27.8125,22.875
948,11296.93,4.30859375,10.05859375,-2.18359375,11294.725,0.203125,0.04296875,-0.689453125,11296.934000000001,-3.5625,-28.4375,22.8125
949,11304.731,3.9921875,9.765625,-2.34765625,11304.757,0.185546875,0.12109375,-0.7578125,11304.837,-3.1875,-28.4375,22.0
950,11314.622,3.9921875,9.5625,-2.453125,11312.273,0.17578125,0.12109375,-0.77734375,11314.694,-3.0,-27.8125,22.75
951,11334.44,3.83203125,9.7890625,-2.5,11332.186,0.140625,0.015625,-0.7421875,11334.409000000001,-2.875,-27.75,23.9375
