,Acc_ts,Acc_x,Acc_y,Acc_z,Gyro_ts,Gyro_x,Gyro_y,Gyro_z,Mag_ts,Mag_x,Mag_y,Mag_z
0,0.0,10.1875,-0.01953125,-0.48828125,1.03,-0.005859375,-0.017578125,0.00390625,-14.93,-25.5,6.1875,12.3125
1,5.782,10.16015625,-0.01953125,-0.61328125,3.3310000000000004,-0.005859375,-0.041015625,-0.001953125,5.627,-25.5,6.1875,12.3125
2,23.525000000000002,10.22265625,0.0,-0.39453125,23.333,-0.001953125,-0.05859375,0.001953125,23.514,-25.6875,7.125,14.4375
3,31.089,10.15234375,0.0,-0.48828125,30.904,-0.001953125,-0.001953125,0.009765625,31.054,-26.125,6.4375,13.1875
4,43.138999999999996,10.22265625,-0.01953125,-0.421875,40.889,0.00390625,0.056640625,-0.00390625,43.212,-24.5,7.0625,12.0625
5,53.168,10.171875,-0.0859375,-0.421875,50.853,-0.005859375,0.021484375,0.00390625,53.039,-25.5625,6.875,13.0625
6,63.082,10.19140625,-0.078125,-0.4609375,60.877,-0.0078125,-0.001953125,0.00390625,62.888,-25.3125,6.875,13.0
7,70.885,10.15234375,-0.10546875,-0.46875,68.365,-0.005859375,-0.009765625,0.01171875,70.89099999999999,-25.3125,6.875,13.0
8,82.63900000000001,10.19921875,-0.10546875,-0.39453125,80.996,-0.001953125,-0.033203125,0.0,82.751,-26.0,6.8125,12.5625
9,90.699,10.1484375,-0.0859375,-0.39453125,88.394,0.005859375,-0.0625,0.001953125,90.60799999999999,-25.5625,6.4375,13.0625
10,100.493,10.13671875,-0.046875,-0.34375,98.41,0.00390625,-0.03125,0.00390625,100.606,-25.625,6.1875,13.8125
11,110.886,10.17578125,-0.02734375,-0.4296875,110.921,0.0,0.060546875,0.0078125,111.029,-25.375,6.1875,13.75
12,120.259,10.24609375,-0.02734375,-0.4609375,118.462,-0.009765625,0.087890625,0.005859375,120.262,-25.0,6.625,12.3125
13,133.236,10.14453125,-0.09765625,-0.62109375,133.26,0.001953125,0.064453125,-0.013671875,133.543,-25.3125,6.875,13.0
14,140.85,10.2265625,-0.0859375,-0.546875,140.792,0.0,0.06640625,0.0,140.858,-25.375,6.375,11.0
15,150.917,10.18359375,-0.0078125,-0.48828125,150.917,0.0,0.072265625,-0.00390625,150.924,-25.1875,6.6875,14.3125
16,163.405,10.1875,0.01953125,-0.39453125,163.257,0.0,0.0390625,0.001953125,163.412,-26.125,6.4375,13.1875
17,173.284,10.203125,-0.01953125,-0.44921875,173.406,0.005859375,0.01171875,0.005859375,173.537,-25.9375,6.625,13.875
18,180.893,10.15625,-0.0078125,-0.4609375,180.865,0.0,0.0078125,-0.001953125,180.9,-25.9375,6.625,13.875
19,191.00400000000002,10.1796875,-0.078125,-0.48046875,191.01000000000002,-0.001953125,0.0234375,-0.00390625,190.995,-25.9375,6.625,13.875
20,203.226,10.15625,-0.0078125,-0.4296875,200.819,0.013671875,-0.01171875,0.005859375,203.231,-25.25,6.875,12.375
21,213.057,10.19921875,0.02734375,-0.3828125,211.00900000000001,0.01171875,-0.013671875,0.00390625,213.073,-25.3125,6.4375,13.0
22,220.785,10.15234375,-0.0390625,-0.32421875,220.792,-0.00390625,-0.0078125,0.009765625,221.04299999999998,-25.3125,6.4375,13.0
23,232.913,10.1875,-0.01953125,-0.2578125,230.83200000000002,-0.0078125,0.017578125,0.0078125,232.824,-25.4375,6.375,11.6875
24,240.75900000000001,10.171875,-0.02734375,-0.39453125,238.43200000000002,-0.00390625,0.009765625,-0.001953125,240.871,-24.75,6.625,12.25
25,250.724,10.7734375,-0.18359375,-0.94921875,248.40599999999998,-0.001953125,0.0,0.009765625,250.53300000000002,-24.75,6.625,12.25
26,260.521,10.15625,-0.02734375,-0.4609375,258.29,-0.001953125,-0.013671875,0.009765625,260.531,-25.0625,6.6875,15.0
27,270.428,10.1484375,-0.078125,-0.35546875,268.522,0.005859375,-0.033203125,-0.001953125,270.521,-25.4375,6.6875,14.375
28,280.971,10.171875,-0.06640625,-0.49609375,280.971,0.001953125,0.017578125,0.0,280.902,-25.875,6.1875,11.125
29,290.18100000000004,10.13671875,-0.0859375,-0.46875,288.381,0.017578125,-0.005859375,-0.005859375,290.185,-25.5,6.625,12.4375
30,301.289,10.15625,-0.125,-0.4609375,300.94599999999997,-0.001953125,0.01171875,-0.009765625,301.09200000000004,-25.1875,6.4375,14.3125
31,313.461,10.1796875,-0.078125,-0.515625,313.501,0.005859375,-0.021484375,0.00390625,313.454,-25.625,6.4375,13.8125
32,323.334,10.19140625,-0.05859375,-0.546875,323.344,0.00390625,-0.0234375,-0.00390625,323.49,-26.0,6.8125,12.5625
33,331.208,10.16015625,-0.05859375,-0.546875,330.805,0.005859375,-0.005859375,-0.001953125,330.91700000000003,-25.8125,6.875,13.125
34,343.47299999999996,10.2265625,-0.0078125,-0.31640625,343.532,0.00390625,-0.005859375,0.005859375,343.619,-25.25,6.875,12.375
35,351.07,10.16015625,0.046875,-0.35546875,350.969,-0.005859375,0.001953125,-0.001953125,351.00399999999996,-26.0,6.4375,14.5
36,360.94100000000003,10.17578125,0.01953125,-0.32421875,360.74699999999996,-0.001953125,0.01171875,0.0,360.918,-26.0,6.4375,14.5
37,373.253,10.18359375,-0.0078125,-0.44140625,371.00100000000003,-0.0078125,0.0234375,-0.001953125,373.06,-25.1875,6.625,11.625
38,383.12600000000003,10.1953125,-0.0078125,-0.41015625,380.926,0.005859375,0.015625,0.005859375,383.133,-26.0,7.0625,12.5625
39,392.95799999999997,10.19140625,-0.05859375,-0.40234375,391.019,0.00390625,0.009765625,-0.00390625,392.87100000000004,-25.375,6.8125,11.0625
40,400.9,10.18359375,-0.02734375,-0.41015625,398.474,0.005859375,0.017578125,0.013671875,400.706,-25.375,7.125,13.75
41,410.609,10.20703125,-0.046875,-0.41015625,408.451,-0.005859375,0.05859375,0.005859375,410.614,-25.375,7.125,13.75
42,420.509,10.203125,-0.078125,-0.4609375,418.343,-0.00390625,0.0234375,-0.009765625,420.51800000000003,-25.8125,6.875,13.125
43,430.983,10.19921875,-0.10546875,-0.5546875,431.185,-0.005859375,-0.01171875,-0.00390625,431.15700000000004,-25.5,6.625,12.4375
44,442.248,10.23828125,-0.078125,-0.49609375,441.067,0.00390625,0.01171875,0.00390625,442.25100000000003,-25.375,6.875,13.75
45,450.166,10.1015625,-0.0859375,-0.48046875,448.49899999999997,0.0,-0.001953125,0.0078125,450.173,-26.0,6.8125,12.5625
46,460.992,10.15234375,-0.05859375,-0.375,460.944,0.0,-0.046875,-0.017578125,460.974,-26.0625,6.0,12.5
47,473.368,10.171875,-0.06640625,-0.56640625,473.49,-0.001953125,0.013671875,0.00390625,473.551,-25.1875,6.625,11.6875
48,481.182,10.19921875,0.02734375,-0.34375,481.04,0.00390625,-0.115234375,0.005859375,481.01300000000003,-25.3125,6.4375,13.0625
49,495.732,10.1484375,-0.01953125,-0.59375,493.522,0.00390625,-0.125,0.017578125,495.541,-25.3125,6.875,13.125
50,503.471,10.171875,-0.046875,-0.44921875,503.45700000000005,0.001953125,-0.01171875,0.001953125,503.505,-25.9375,6.25,13.875
51,513.481,10.140625,-0.0390625,-0.52734375,510.95199999999994,0.0078125,-0.126953125,-0.001953125,513.2900000000001,-25.625,6.25,13.8125
52,523.363,10.171875,-0.01953125,-0.4296875,520.987,0.0078125,-0.103515625,-0.00390625,523.368,-25.5,6.875,12.4375
53,531.0279999999999,10.203125,0.05859375,-0.4609375,530.833,0.009765625,-0.072265625,-0.00390625,531.0129999999999,-25.5,6.875,12.4375
54,541.052,10.19140625,0.0078125,-0.46875,541.073,0.009765625,-0.03515625,0.009765625,541.037,-25.5,6.875,12.4375
55,552.8960000000001,10.109375,-0.02734375,-0.5546875,550.858,-0.00390625,-0.01953125,0.0,553.045,-25.625,6.25,13.8125
56,560.921,10.1875,-0.06640625,-0.5859375,558.466,0.005859375,0.0,0.00390625,560.728,-25.125,6.375,10.9375
57,570.769,10.1796875,-0.09765625,-0.59375,568.444,0.005859375,0.03125,0.005859375,570.577,-25.125,6.375,10.9375
58,580.699,10.109375,-0.06640625,-0.56640625,578.369,0.0,0.07421875,0.00390625,580.508,-25.75,6.875,12.5
59,592.361,10.1015625,-0.046875,-0.4296875,590.999,-0.001953125,0.111328125,-0.015625,592.371,-25.0625,6.625,13.0625
60,601.026,10.0859375,-0.02734375,-0.44140625,601.168,-0.001953125,0.125,-0.001953125,600.92,-25.6875,6.8125,11.875
61,610.279,10.16015625,-0.0390625,-0.40234375,608.4549999999999,-0.00390625,0.095703125,0.013671875,610.185,-25.4375,7.125,14.5
62,621.374,10.18359375,-0.078125,-0.3828125,621.039,0.00390625,0.119140625,0.00390625,621.07,-24.9375,6.875,11.625
63,633.478,10.15625,-0.05859375,-0.48828125,633.501,0.00390625,0.046875,0.00390625,633.472,-24.9375,7.0625,12.3125
64,643.563,10.16015625,-0.0078125,-0.421875,643.486,0.01171875,0.021484375,-0.013671875,643.651,-25.5,6.25,12.375
65,651.2620000000001,10.1015625,0.0078125,-0.39453125,650.8589999999999,0.005859375,0.013671875,-0.005859375,650.972,-25.6875,6.875,14.5625
66,663.5830000000001,10.1875,-0.05859375,-0.39453125,660.96,0.01171875,0.009765625,0.00390625,663.455,-25.9375,6.625,11.875
67,673.519,10.171875,0.0078125,-0.46875,670.9549999999999,0.005859375,0.0390625,0.005859375,673.365,-25.6875,7.125,14.5625
68,683.2719999999999,10.22265625,-0.05859375,-0.515625,681.048,-0.0078125,0.033203125,0.01171875,683.294,-26.0,7.0625,12.5625
69,693.203,10.18359375,-0.05859375,-0.4609375,690.9929999999999,0.005859375,0.0234375,0.0,693.207,-24.9375,7.3125,12.3125
70,700.992,10.23046875,-0.02734375,-0.48046875,700.996,-0.00390625,0.0078125,0.01171875,701.177,-24.9375,7.3125,12.3125
71,710.88,10.17578125,-0.046875,-0.39453125,708.604,-0.001953125,0.00390625,0.005859375,710.992,-26.25,6.1875,11.9375
72,720.858,10.13671875,-0.046875,-0.35546875,718.4739999999999,0.001953125,0.009765625,0.005859375,720.8670000000001,-26.25,6.1875,11.9375
73,731.085,10.20703125,-0.046875,-0.32421875,731.105,0.001953125,0.0078125,0.001953125,731.074,-25.5625,6.4375,13.125
74,740.9440000000001,10.19921875,-0.046875,-0.3359375,740.975,0.0078125,0.0,0.001953125,741.001,-25.25,6.4375,12.3125
75,752.379,10.171875,-0.046875,-0.3828125,751.013,0.00390625,0.013671875,0.0078125,752.389,-25.5,7.125,15.125
76,761.053,10.18359375,-0.06640625,-0.44921875,761.1940000000001,0.001953125,-0.009765625,-0.0078125,760.947,-26.0,6.1875,11.875
77,770.93,10.1328125,-0.05859375,-0.44140625,771.038,0.0,0.00390625,0.001953125,771.005,-25.375,6.625,13.75
78,781.44,10.1484375,-0.0078125,-0.375,781.065,0.0,-0.005859375,0.013671875,781.0709999999999,-25.5625,6.25,13.125
79,793.4989999999999,10.1015625,-0.05859375,-0.40234375,793.519,0.0,-0.0078125,-0.0078125,793.492,-25.1875,7.0625,11.75
80,803.5369999999999,10.14453125,-0.0390625,-0.40234375,803.544,0.005859375,0.001953125,0.009765625,803.785,-26.25,6.875,14.6875
81,811.125,10.1953125,-0.05859375,-0.49609375,811.078,-0.00390625,-0.005859375,-0.001953125,811.028,-25.625,6.625,13.8125
82,823.579,10.1796875,-0.09765625,-0.49609375,820.96,0.0,0.001953125,-0.00390625,823.65,-25.3125,6.625,13.125
83,833.422,10.12109375,-0.05859375,-0.3828125,831.082,-0.001953125,0.009765625,0.001953125,833.427,-26.75,6.625,12.75
84,843.333,10.20703125,-0.0078125,-0.35546875,840.931,0.00390625,0.009765625,-0.001953125,843.3389999999999,-25.0625,6.625,13.0625
85,853.0889999999999,10.17578125,0.0,-0.375,851.063,0.00390625,0.001953125,0.00390625,852.894,-25.875,7.3125,13.875
86,861.071,10.11328125,-0.0390625,-0.71875,858.6080000000001,0.001953125,-0.0078125,0.0078125,861.235,-25.625,7.5,13.8125
87,870.931,10.1796875,0.23828125,-2.9296875,868.6120000000001,-0.263671875,-0.0234375,0.0078125,870.9409999999999,-25.625,7.5,13.8125
88,880.773,9.8125,0.02734375,-2.94140625,878.4380000000001,-0.939453125,0.060546875,0.005859375,880.885,-26.125,6.625,13.3125
89,890.775,10.12109375,-0.14453125,-2.87109375,888.522,-1.59375,0.068359375,0.01953125,890.6840000000001,-25.625,6.625,13.8125
90,900.539,10.27734375,-0.18359375,-2.4140625,898.667,-2.095703125,0.03515625,0.052734375,900.3489999999999,-26.6875,6.4375,14.0625
91,910.381,10.10546875,-0.0859375,-2.26953125,908.593,-2.556640625,0.080078125,0.03515625,910.2900000000001,-26.1875,6.0,13.9375
92,920.3050000000001,10.22265625,-0.09765625,-1.58984375,918.588,-2.931640625,0.09375,0.041015625,920.31,-26.0625,6.0625,15.25
93,931.072,9.296875,-0.40234375,-1.1015625,931.024,-3.279296875,0.142578125,0.048828125,931.057,-27.125,5.625,16.25
94,941.0600000000001,9.8203125,-0.48828125,-0.34375,941.169,-3.392578125,0.18359375,0.037109375,941.422,-26.75,5.375,14.75
95,953.444,10.203125,-0.74609375,0.0,953.566,-3.400390625,0.26171875,0.02734375,953.626,-28.125,5.0,17.75
96,965.6510000000001,10.70703125,-0.5546875,0.69921875,963.683,-3.244140625,0.23828125,0.015625,965.659,-28.125,4.125,17.75
97,975.548,10.515625,-0.35546875,1.1796875,973.5780000000001,-2.951171875,0.197265625,0.025390625,975.521,-27.875,3.6875,17.6875
98,981.039,10.203125,-0.32421875,1.46484375,980.951,-2.646484375,0.162109375,-0.001953125,981.045,-28.75,3.9375,19.25
99,993.4770000000001,9.8046875,-0.26953125,2.17578125,991.162,-2.1171875,0.017578125,0.0078125,993.482,-28.875,3.0,17.875
100,1003.0870000000001,9.9765625,-0.27734375,1.6171875,1000.974,-1.498046875,-0.171875,0.009765625,1003.183,-28.8125,3.0,17.125
101,1013.064,9.9453125,-0.40234375,1.5703125,1011.029,-0.916015625,-0.21875,0.00390625,1013.132,-28.8125,2.875,19.875
102,1021.156,10.1875,-0.14453125,0.6796875,1018.542,-0.53515625,-0.25,0.00390625,1021.161,-28.8125,2.875,19.875
103,1031.025,10.14453125,-0.125,0.71875,1028.6219999999998,-0.380859375,-0.150390625,0.00390625,1031.093,-28.6875,2.1875,18.4375
104,1042.601,10.19140625,-0.171875,0.5546875,1041.0,-0.228515625,-0.08203125,0.005859375,1042.693,-29.4375,2.4375,20.6875
105,1050.64,10.0625,-0.11328125,0.34375,1048.678,-0.1328125,-0.03515625,0.001953125,1050.65,-28.5625,3.0625,19.1875
106,1060.4759999999999,10.203125,-0.05859375,0.05859375,1058.62,-0.064453125,-0.044921875,0.0078125,1060.478,-29.5625,2.4375,19.375
107,1070.386,10.15625,-0.05859375,-0.3046875,1068.573,-0.0078125,-0.037109375,-0.00390625,1070.3890000000001,-30.125,2.25,22.25
108,1080.995,10.1796875,-0.06640625,-0.39453125,1081.093,0.005859375,-0.0390625,0.00390625,1080.902,-28.75,2.1875,19.1875
109,1093.5649999999998,10.11328125,-0.09765625,-0.3828125,1093.586,0.005859375,-0.033203125,-0.00390625,1093.677,-29.125,1.75,19.875
110,1101.429,10.20703125,-0.05859375,-0.375,1101.086,-0.0078125,-0.001953125,-0.001953125,1101.035,-30.0625,2.1875,19.5
111,1113.705,10.203125,-0.05859375,-0.2109375,1113.465,0.005859375,-0.03125,0.001953125,1113.594,-29.6875,2.8125,20.8125
112,1123.626,10.1484375,-0.0390625,-0.3828125,1123.634,-0.005859375,-0.068359375,-0.001953125,1123.612,-29.4375,2.6875,20.6875
113,1131.321,10.11328125,0.171875,-0.70703125,1131.057,-0.03515625,-0.095703125,-0.001953125,1131.227,-30.125,2.875,22.25
114,1143.387,10.15234375,0.25,-1.68359375,1140.966,-0.3203125,-0.06640625,0.005859375,1143.392,-29.0625,2.1875,19.25
115,1151.181,10.31640625,0.0,-1.9453125,1150.985,-0.697265625,-0.044921875,0.02734375,1151.2910000000002,-29.0625,2.1875,19.25
116,1161.151,10.1796875,-0.171875,-2.01171875,1161.1560000000002,-1.06640625,0.046875,0.015625,1161.1370000000002,-29.0625,2.1875,19.25
117,1171.121,10.21875,-0.2109375,-2.05859375,1170.925,-1.451171875,0.119140625,0.013671875,1171.106,-29.0625,2.1875,19.25
118,1180.947,9.94140625,-0.21875,-1.68359375,1178.656,-1.708984375,0.201171875,0.005859375,1180.858,-29.9375,1.9375,18.125
119,1196.261,10.49609375,0.046875,-1.16015625,1196.082,-2.296875,0.318359375,0.015625,1196.112,-28.75,2.0,19.1875
120,1210.556,9.84765625,-0.01953125,-1.0234375,1208.624,-2.595703125,0.392578125,0.00390625,1210.5649999999998,-29.875,1.5625,20.0625
121,1222.4950000000001,10.77734375,0.125,-0.62109375,1221.261,-2.84375,0.4921875,0.0078125,1222.5,-30.125,1.125,19.4375
122,1233.657,9.8125,-0.10546875,0.2109375,1233.665,-2.9140625,0.5078125,-0.029296875,1233.64,-30.6875,0.9375,20.1875
123,1241.183,9.90625,-0.05859375,0.82421875,1241.134,-2.84375,0.544921875,-0.03125,1241.166,-30.0625,0.3125,21.375
124,1251.3000000000002,10.16015625,0.0,0.6328125,1251.0639999999999,-2.625,0.48828125,-0.0546875,1250.9950000000001,-31.8125,0.25,19.125
125,1263.506,10.4296875,-0.11328125,1.16015625,1263.555,-2.22265625,0.3671875,-0.04296875,1263.48,-32.0,0.1875,18.5
126,1273.757,9.9296875,-0.171875,1.1875,1273.696,-1.84765625,0.2109375,-0.044921875,1273.58,-31.375,-0.625,18.9375
127,1283.591,9.875,-0.40234375,1.92578125,1283.6000000000001,-1.42578125,0.111328125,-0.044921875,1283.6970000000001,-31.6875,-0.875,17.6875
128,1293.474,9.91015625,-0.171875,1.37109375,1291.1390000000001,-1.0859375,0.0390625,-0.025390625,1293.479,-32.3125,-1.0625,18.5625
129,1301.2930000000001,10.02734375,-0.32421875,1.1015625,1301.091,-0.80078125,-0.01953125,-0.013671875,1301.057,-31.375,-0.625,17.0
130,1311.309,10.30078125,-0.25,0.86328125,1311.038,-0.609375,-0.044921875,-0.009765625,1311.121,-32.3125,-0.875,18.5625
131,1323.256,10.30859375,-0.27734375,0.95703125,1321.145,-0.50390625,-0.109375,-0.01171875,1323.283,-31.5,-1.25,20.3125
132,1331.151,10.09765625,-0.2890625,0.44921875,1330.9569999999999,-0.443359375,-0.095703125,-0.0234375,1331.137,-31.5,-1.25,20.3125
133,1340.827,10.0859375,-0.27734375,0.671875,1338.481,-0.419921875,-0.052734375,-0.005859375,1340.94,-31.875,-1.3125,17.0625
134,1350.955,10.234375,-0.046875,0.21875,1348.6499999999999,-0.400390625,-0.0234375,-0.005859375,1350.763,-31.875,-1.3125,17.0625
135,1360.765,10.28125,-0.15234375,0.31640625,1358.4950000000001,-0.36328125,0.01953125,0.0078125,1360.771,-32.3125,-1.9375,18.5
136,1371.281,10.22265625,0.0078125,-0.15234375,1371.1109999999999,-0.384765625,0.0859375,-0.01171875,1371.2830000000001,-31.625,-1.25,17.0
137,1382.498,10.17578125,0.078125,-0.171875,1381.136,-0.3984375,0.111328125,-0.00390625,1382.505,-32.75,-1.125,15.9375
138,1391.1370000000002,10.171875,0.05859375,-0.0390625,1391.2830000000001,-0.39453125,0.076171875,-0.0234375,1391.309,-31.6875,-1.0625,17.6875
139,1401.1299999999999,10.03515625,0.2109375,-0.171875,1401.309,-0.419921875,0.02734375,-0.01171875,1401.134,-32.5,-1.0625,17.875
140,1411.178,10.4453125,0.26953125,0.05859375,1411.1290000000001,-0.51171875,0.05078125,-0.0078125,1411.16,-32.1875,-1.3125,17.125
141,1423.637,10.1328125,-0.06640625,-0.62109375,1423.721,-0.607421875,0.04296875,-0.001953125,1423.905,-32.8125,-1.0625,18.6875
142,1433.702,10.34375,-0.27734375,-0.06640625,1433.51,-0.671875,0.16015625,-0.01953125,1433.6789999999999,-32.8125,-1.0625,16.5625
143,1441.144,10.1171875,-0.32421875,-0.296875,1441.1499999999999,-0.69921875,0.115234375,-0.025390625,1441.146,-32.8125,-1.0625,16.5625
144,1453.666,10.0,-0.31640625,0.18359375,1451.103,-0.701171875,0.09765625,-0.03125,1453.471,-32.4375,-1.3125,17.1875
145,1461.0749999999998,9.89453125,-0.2890625,-0.4296875,1461.08,-0.6796875,-0.005859375,-0.017578125,1461.065,-32.4375,-1.3125,17.1875
146,1471.2130000000002,10.12109375,-0.19140625,-0.44140625,1471.018,-0.62109375,-0.07421875,-0.01953125,1471.299,-32.4375,-1.3125,17.1875
147,1483.227,10.03125,-0.40234375,0.06640625,1481.202,-0.62890625,-0.158203125,-0.025390625,1483.2320000000002,-32.75,-2.375,17.875
148,1496.231,10.16015625,-0.44140625,-0.7578125,1496.1009999999999,-0.66015625,-0.275390625,-0.013671875,1496.237,-32.1875,-1.9375,17.125
149,1510.864,10.66015625,-0.05859375,-0.6328125,1508.6170000000002,-0.77734375,-0.361328125,-0.015625,1510.933,-32.4375,-1.9375,17.1875
150,1520.796,10.03515625,-0.06640625,-0.48046875,1518.4820000000002,-0.890625,-0.42578125,-0.005859375,1520.688,-32.875,-1.8125,14.5625
151,1531.304,9.76953125,-0.046875,-0.7578125,1531.133,-1.021484375,-0.4609375,-0.005859375,1531.359,-32.9375,-2.375,17.25
152,1541.096,10.22265625,0.02734375,-1.1875,1541.125,-1.14453125,-0.47265625,-0.0078125,1541.037,-32.5,-1.9375,17.8125
153,1550.427,11.671875,0.0078125,-1.1015625,1548.548,-1.2109375,-0.435546875,-0.0078125,1550.433,-32.6875,-2.375,17.25
154,1561.181,11.15625,0.0078125,-0.8828125,1561.179,-1.330078125,-0.484375,-0.001953125,1561.184,-32.6875,-2.1875,17.25
155,1573.608,9.5,-0.046875,-0.14453125,1573.73,-1.376953125,-0.5078125,0.013671875,1573.801,-33.125,-2.3125,19.3125
156,1583.9350000000002,10.59765625,-0.31640625,0.36328125,1583.823,-1.369140625,-0.53125,0.013671875,1583.8419999999999,-34.0,-1.9375,20.25
157,1593.503,9.56640625,-0.34375,1.1015625,1593.625,-1.390625,-0.029296875,0.029296875,1593.68,-33.25,-1.9375,18.0
158,1601.0910000000001,10.4375,-0.4296875,0.91015625,1601.097,-1.392578125,0.01953125,0.029296875,1601.222,-33.25,-1.9375,18.0
159,1611.3249999999998,10.26953125,-0.19921875,1.16015625,1611.162,-1.201171875,-0.013671875,0.02734375,1611.289,-34.375,-1.6875,21.75
160,1623.392,10.328125,0.0,0.91015625,1621.0990000000002,-0.994140625,0.029296875,-0.001953125,1623.464,-33.625,-2.375,18.8125
161,1633.392,10.21875,-0.14453125,0.73828125,1631.169,-0.744140625,0.033203125,0.021484375,1633.398,-33.625,-2.5625,18.8125
162,1641.342,9.8984375,-0.01953125,0.640625,1641.147,-0.556640625,0.01171875,0.005859375,1641.276,-33.625,-2.5625,18.8125
163,1651.2199999999998,10.2265625,-0.06640625,0.79296875,1648.6989999999998,-0.365234375,0.009765625,-0.015625,1651.026,-33.625,-2.5625,18.8125
164,1662.9910000000002,10.140625,-0.09765625,-0.01953125,1661.1119999999999,-0.166015625,0.009765625,0.001953125,1663.117,-33.125,-2.625,16.5625
165,1676.1390000000001,10.234375,-0.31640625,-0.32421875,1676.1589999999999,-0.130859375,0.017578125,0.0,1676.2330000000002,-33.5,-2.8125,18.0625
166,1688.647,10.13671875,-0.31640625,0.26953125,1686.334,-0.1328125,0.013671875,0.001953125,1688.629,-33.8125,-2.375,18.125
167,1696.201,10.140625,-0.14453125,-0.34375,1696.161,-0.091796875,-0.03125,0.015625,1696.19,-32.9375,-2.375,14.5625
168,1702.308,10.1328125,-0.05859375,-0.8515625,1701.146,-0.1171875,-0.021484375,-0.00390625,1702.315,-34.125,-2.5625,18.9375
169,1710.558,10.26171875,-0.0390625,-0.57421875,1708.6840000000002,-0.19140625,-0.005859375,0.00390625,1710.365,-33.9375,-3.25,16.75
170,1723.646,10.20703125,-0.09765625,-0.0390625,1723.654,-0.173828125,-0.001953125,0.001953125,1723.56,-33.875,-2.625,16.125
171,1730.442,10.15625,-0.078125,-0.21875,1728.8680000000002,-0.158203125,-0.001953125,0.00390625,1730.349,-33.875,-2.625,16.125
172,1741.2540000000001,10.1953125,0.02734375,-0.71875,1741.222,-0.1953125,0.0,0.0,1741.195,-33.5,-2.5625,18.0625
173,1753.603,10.2421875,0.14453125,-0.7578125,1753.723,-0.287109375,0.001953125,0.01953125,1753.7849999999999,-33.75,-2.625,17.4375
174,1763.769,10.09375,0.14453125,-0.65234375,1761.177,-0.3671875,-0.01953125,0.015625,1763.7730000000001,-34.375,-3.0625,16.875
175,1771.298,10.16015625,-0.0390625,-0.31640625,1771.1019999999999,-0.3984375,-0.001953125,-0.01171875,1771.288,-34.375,-3.0625,16.875
176,1783.5700000000002,10.26171875,0.171875,-0.890625,1781.13,-0.44921875,0.00390625,0.0234375,1783.5749999999998,-34.1875,-2.8125,16.8125
177,1793.425,9.98828125,-0.02734375,-0.3046875,1791.279,-0.552734375,0.005859375,0.00390625,1793.337,-33.125,-2.375,16.5625
178,1803.3120000000001,10.19921875,-0.06640625,-0.87109375,1801.2520000000002,-0.560546875,0.005859375,0.00390625,1803.3790000000001,-34.0625,-2.8125,18.1875
179,1811.216,10.203125,-0.125,-0.79296875,1808.692,-0.5859375,0.00390625,0.013671875,1811.22,-34.0625,-2.8125,18.1875
180,1822.962,10.14453125,-0.296875,-0.7265625,1821.15,-0.658203125,0.00390625,0.013671875,1823.0310000000002,-33.875,-3.25,18.8125
181,1830.946,10.05859375,-0.21875,-0.06640625,1828.726,-0.689453125,0.01171875,-0.00390625,1830.842,-34.5625,-2.8125,18.25
182,1840.738,10.0625,-0.3046875,-0.23046875,1838.808,-0.6953125,0.021484375,0.0078125,1840.748,-33.875,-2.625,16.125
183,1850.752,10.0625,-0.21875,-0.66015625,1848.639,-0.638671875,0.001953125,0.009765625,1850.7549999999999,-34.125,-2.5625,18.9375
184,1863.625,10.296875,-0.05859375,-0.2578125,1863.634,-0.62109375,0.005859375,0.00390625,1863.74,-33.0625,-3.0625,15.9375
185,1871.2740000000001,10.15625,-0.0390625,-0.91015625,1871.224,-0.666015625,0.00390625,0.013671875,1871.257,-34.1875,-3.0625,16.8125
186,1881.477,10.19140625,0.02734375,-0.39453125,1881.3029999999999,-0.6953125,0.0,0.01171875,1881.3059999999998,-34.75,-3.25,17.6875
187,1893.751,10.23046875,-0.09765625,-0.39453125,1893.676,-0.728515625,0.0078125,0.009765625,1893.845,-33.75,-2.8125,17.4375
188,1901.549,10.37109375,0.10546875,0.1328125,1901.2230000000002,-0.74609375,0.001953125,0.015625,1901.2830000000001,-35.1875,-2.875,17.0625
189,1913.7640000000001,10.24609375,-0.046875,-0.48828125,1913.6219999999998,-0.81640625,-0.009765625,0.0078125,1913.91,-34.625,-3.3125,16.3125
190,1921.2769999999998,10.19921875,-0.06640625,-0.48828125,1921.231,-0.892578125,0.009765625,0.021484375,1921.243,-35.0,-2.8125,17.75
191,1933.604,9.69140625,-0.046875,-0.34375,1931.182,-0.927734375,-0.015625,0.005859375,1933.6290000000001,-34.8125,-2.875,15.625
192,1943.4940000000001,10.37109375,-0.34375,-0.7265625,1941.416,-0.923828125,-0.015625,0.033203125,1943.5,-34.25,-3.875,17.5625
193,1953.486,10.109375,-0.19921875,-0.4296875,1951.239,-0.8984375,-0.01171875,0.015625,1953.49,-35.0,-3.6875,17.75
194,1963.2350000000001,10.24609375,-0.19140625,-0.49609375,1961.379,-0.845703125,0.00390625,0.01171875,1963.33,-34.25,-3.25,17.5625
195,1972.985,9.9453125,-0.23046875,-0.91015625,1971.139,-0.865234375,0.021484375,0.021484375,1973.0970000000002,-33.875,-3.25,16.125
196,1981.1490000000001,9.87890625,-0.171875,-0.6796875,1978.683,-0.91796875,0.021484375,0.03125,1981.155,-35.0625,-3.0625,15.6875
197,1992.6870000000001,10.08984375,-0.125,0.26953125,1991.462,-1.0,-0.009765625,0.001953125,1992.7820000000002,-34.25,-3.0625,17.5625
198,2001.192,10.51953125,-0.18359375,-0.05859375,2001.232,-1.029296875,-0.01171875,0.01953125,2001.249,-34.75,-3.5,17.6875
199,2016.16,10.19921875,-0.27734375,-0.19921875,2016.1850000000002,-1.044921875,-0.005859375,0.013671875,2016.356,-34.375,-3.5,16.1875
200,2028.578,10.28515625,-0.34375,-0.21875,2026.3529999999998,-1.009765625,0.001953125,0.001953125,2028.3829999999998,-34.6875,-3.0625,16.9375
201,2033.791,10.109375,-0.35546875,-0.65234375,2033.722,-1.060546875,0.017578125,0.009765625,2033.8919999999998,-35.125,-3.6875,16.375
202,2043.663,9.94140625,-0.19140625,0.515625,2043.6879999999999,-0.998046875,0.0,0.013671875,2043.756,-35.6875,-3.5,16.5625
203,2051.409,9.9453125,-0.31640625,-0.10546875,2051.182,-1.001953125,-0.009765625,0.017578125,2051.212,-35.375,-3.875,18.4375
204,2064.0,10.234375,0.078125,-0.21875,2063.802,-1.009765625,-0.0078125,0.015625,2064.108,-34.625,-3.9375,16.25
205,2073.589,10.18359375,0.10546875,-0.296875,2073.711,-1.0234375,0.0,0.025390625,2073.7670000000003,-34.8125,-3.5,15.625
206,2081.2659999999996,9.94921875,0.2578125,0.35546875,2081.221,-1.02734375,-0.013671875,0.021484375,2081.232,-34.875,-4.125,16.3125
207,2093.448,10.51953125,0.52734375,0.74609375,2091.2320000000004,-1.126953125,0.005859375,0.017578125,2093.52,-34.375,-3.6875,16.1875
208,2103.348,9.9375,0.21875,0.49609375,2101.3700000000003,-1.14453125,-0.021484375,0.021484375,2103.4190000000003,-34.5,-3.5,14.875
209,2111.154,10.35546875,0.171875,0.3828125,2111.16,-1.04296875,-0.001953125,0.013671875,2111.34,-34.5,-3.5,14.875
210,2121.318,10.09765625,-0.01953125,0.31640625,2118.824,-0.919921875,0.021484375,0.01953125,2121.4300000000003,-34.5,-3.9375,14.875
211,2131.058,10.59375,-0.66015625,0.26953125,2128.8160000000003,-0.650390625,0.041015625,0.009765625,2131.064,-35.1875,-3.9375,17.0625
212,2140.9139999999998,10.31640625,-0.44921875,-0.02734375,2138.789,-0.521484375,-0.001953125,0.01953125,2140.92,-35.1875,-3.9375,17.0625
213,2150.779,10.23828125,-0.44140625,0.82421875,2148.808,-0.376953125,-0.0078125,0.00390625,2150.6850000000004,-34.5,-3.9375,14.875
214,2161.1859999999997,10.171875,-0.32421875,-0.0078125,2161.378,-0.236328125,0.00390625,0.005859375,2161.346,-34.75,-4.125,14.9375
215,2171.243,10.109375,-0.15234375,-0.10546875,2171.303,-0.166015625,-0.0078125,0.013671875,2171.3520000000003,-34.6875,-4.125,16.875
216,2180.493,10.2578125,-0.1640625,-0.3046875,2178.804,-0.177734375,-0.00390625,-0.00390625,2180.4990000000003,-35.1875,-3.6875,17.0625
217,2190.34,10.1171875,-0.1640625,0.0390625,2188.779,-0.1796875,0.001953125,0.00390625,2190.344,-35.1875,-3.6875,17.0625
218,2201.308,10.22265625,-0.23828125,-0.10546875,2201.317,-0.14453125,0.0,-0.0078125,2201.292,-35.1875,-3.6875,17.0625
219,2211.105,10.22265625,-0.25,0.32421875,2211.214,-0.037109375,0.001953125,-0.00390625,2211.2889999999998,-35.1875,-3.6875,17.0625
220,2221.307,10.15625,-0.09765625,-0.26953125,2221.204,-0.0078125,0.00390625,-0.005859375,2221.3129999999996,-35.0625,-3.9375,15.625
221,2233.714,10.22265625,-0.06640625,-0.3359375,2231.271,0.005859375,0.013671875,-0.005859375,2233.782,-35.75,-4.375,17.125
222,2253.4320000000002,10.19921875,-0.06640625,-0.41015625,2251.409,-0.005859375,0.009765625,0.0078125,2253.437,-34.9375,-4.375,14.25
223,2263.293,10.15234375,-0.078125,-0.32421875,2261.3650000000002,0.00390625,0.01171875,-0.0078125,2263.422,-35.3125,-4.125,17.75
224,2273.308,10.203125,-0.09765625,-0.3359375,2271.183,-0.0078125,-0.01171875,-0.005859375,2273.3340000000003,-35.25,-4.5625,17.0
225,2281.1110000000003,10.15234375,-0.10546875,-0.39453125,2278.804,-0.001953125,-0.017578125,0.001953125,2281.117,-35.25,-4.5625,17.0
226,2300.912,10.23828125,-0.078125,-0.44921875,2298.648,-0.009765625,0.041015625,-0.001953125,2300.9179999999997,-35.1875,-4.625,14.3125
227,2311.46,10.19921875,-0.0859375,-0.4609375,2311.293,-0.001953125,0.16015625,0.0078125,2311.462,-35.6875,-3.6875,16.5625
228,2322.651,10.27734375,0.171875,-3.88671875,2321.257,-0.349609375,-0.080078125,0.0,2322.654,-34.9375,-4.375,16.9375
229,2330.598,9.4765625,0.296875,-3.9453125,2328.7360000000003,-0.677734375,-0.056640625,0.00390625,2330.6040000000003,-34.5625,-4.375,15.5
230,2341.5849999999996,9.875,-0.19140625,-3.0078125,2341.39,-1.26953125,0.01171875,0.009765625,2341.476,-34.625,-4.8125,16.25
231,2353.696,11.1640625,-0.56640625,-3.2265625,2353.8160000000003,-2.01171875,-0.029296875,0.0234375,2353.826,-35.1875,-4.125,17.0
232,2375.892,10.28125,-0.59375,-1.41796875,2373.7529999999997,-2.767578125,-0.150390625,0.05859375,2376.005,-35.6875,-4.5625,16.5
233,2384.093,9.89453125,-0.41015625,-0.23828125,2383.747,-2.953125,0.021484375,0.041015625,2383.7999999999997,-34.9375,-4.8125,16.9375
234,2393.7439999999997,10.640625,-0.36328125,0.46875,2391.4080000000004,-3.0546875,0.02734375,0.052734375,2393.752,-33.8125,-5.875,15.25
235,2403.659,10.81640625,-0.1328125,1.015625,2401.328,-3.10546875,0.009765625,0.0546875,2403.664,-33.8125,-5.875,15.25
236,2421.37,9.82421875,-0.296875,1.90625,2421.375,-2.49609375,-0.013671875,0.03515625,2421.556,-33.8125,-5.875,15.25
237,2431.308,11.23828125,-0.4296875,2.47265625,2428.813,-2.083984375,0.015625,0.02734375,2431.3129999999996,-33.8125,-5.875,15.25
238,2441.203,10.26953125,-0.26953125,2.23046875,2438.828,-1.533203125,0.005859375,0.02734375,2441.224,-32.9375,-7.5625,13.625
239,2456.323,10.1171875,-0.25,3.16015625,2456.343,-0.607421875,0.01171875,0.00390625,2456.432,-34.0,-8.1875,13.8125
240,2466.425,10.23828125,-0.3828125,2.15625,2466.386,-0.140625,0.017578125,0.001953125,2466.39,-33.625,-7.8125,12.375
241,2473.998,10.18359375,0.10546875,-0.3828125,2473.855,-0.0546875,0.005859375,-0.00390625,2473.804,-33.75,-7.75,13.8125
242,2483.7780000000002,10.16015625,0.56640625,-0.546875,2483.803,-0.0859375,0.017578125,-0.00390625,2483.872,-33.9375,-8.25,11.125
243,2500.474,10.2265625,0.14453125,-0.3828125,2498.799,-0.05859375,0.001953125,0.0078125,2500.478,-32.6875,-8.625,10.75
244,2510.3650000000002,10.1953125,-0.546875,-0.05859375,2508.913,-0.0546875,0.01171875,0.005859375,2510.372,-32.6875,-8.625,10.75
245,2521.4089999999997,10.26171875,-0.8046875,-0.05859375,2521.363,-0.013671875,0.080078125,-0.005859375,2521.348,-32.75,-8.0,11.5625
246,2533.706,10.19921875,-0.06640625,-0.3359375,2533.828,-0.00390625,0.1328125,-0.015625,2533.887,-34.6875,-7.8125,13.375
247,2541.4379999999996,10.13671875,-0.1328125,-0.26953125,2541.373,-0.005859375,0.109375,-0.00390625,2541.344,-32.625,-8.25,10.125
248,2563.589,10.16015625,-0.10546875,-0.25,2561.328,-0.001953125,0.087890625,-0.001953125,2563.597,-33.375,-8.25,12.3125
249,2571.399,10.12109375,-0.0859375,-0.27734375,2571.404,-0.015625,0.048828125,-0.00390625,2571.404,-33.375,-8.25,12.3125
250,2583.372,10.1328125,-0.09765625,-0.31640625,2581.507,0.0078125,0.056640625,0.0078125,2583.377,-34.5,-8.0,13.9375
251,2591.308,10.1328125,-0.0859375,-0.296875,2588.948,0.0,0.060546875,-0.0078125,2591.313,-34.5,-8.0,13.9375
252,2601.1000000000004,10.1171875,-0.06640625,-0.27734375,2598.9390000000003,0.005859375,0.0234375,-0.00390625,2601.169,-34.5625,-8.25,12.0
253,2620.931,10.15625,-0.078125,-0.21875,2618.988,0.001953125,0.00390625,0.013671875,2620.94,-33.875,-8.4375,12.4375
254,2630.818,10.1953125,-0.0390625,-0.26953125,2628.843,0.00390625,-0.01171875,-0.0078125,2630.8250000000003,-33.5625,-7.5625,12.375
255,2640.734,10.22265625,0.0,-0.3046875,2638.925,0.0078125,0.0,-0.00390625,2640.737,-33.125,-8.0,13.0
256,2653.988,10.203125,-0.078125,-0.26953125,2653.7929999999997,0.00390625,0.033203125,0.009765625,2653.9,-33.6875,-8.4375,13.125
257,2670.346,10.20703125,-0.14453125,-0.2890625,2668.892,0.0078125,0.05859375,-0.00390625,2670.352,-33.6875,-8.4375,13.125
258,2681.466,10.1796875,-0.0859375,-0.2109375,2681.437,-0.00390625,0.099609375,-0.00390625,2681.406,-32.5625,-8.25,9.375
259,2693.755,10.26953125,-0.125,-0.26953125,2693.875,0.00390625,0.119140625,0.00390625,2693.9350000000004,-32.875,-8.0,12.9375
260,2701.444,10.2265625,-0.10546875,-0.23828125,2701.249,-0.00390625,0.142578125,-0.001953125,2701.409,-33.4375,-8.4375,13.0625
261,2713.8830000000003,10.12109375,-0.1328125,-0.15234375,2711.397,0.0078125,0.134765625,0.001953125,2713.753,-33.0,-8.625,11.5625
262,2733.653,10.11328125,-0.15234375,-0.14453125,2731.425,-0.00390625,0.005859375,-0.001953125,2733.4610000000002,-33.1875,-8.25,10.9375
263,2743.509,10.1015625,-0.09765625,-0.171875,2741.408,-0.00390625,-0.064453125,-0.0078125,2743.42,-33.0,-8.4375,11.625
264,2751.305,10.12109375,-0.05859375,-0.26953125,2748.878,-0.001953125,-0.12890625,-0.00390625,2751.3830000000003,-34.0,-8.25,11.875
265,2771.1079999999997,10.1953125,-0.0390625,-0.31640625,2768.821,0.01171875,-0.115234375,0.021484375,2771.114,-33.0625,-8.4375,12.25
266,2781.364,10.19921875,-0.078125,-0.2578125,2781.2980000000002,0.0078125,-0.041015625,-0.009765625,2781.4199999999996,-33.75,-8.25,11.0625
267,2792.757,10.15234375,-0.078125,-0.32421875,2791.3770000000004,-0.00390625,-0.017578125,-0.01171875,2792.7599999999998,-33.1875,-8.25,10.9375
268,2801.4199999999996,10.17578125,-0.078125,-0.23828125,2801.594,-0.00390625,-0.021484375,0.00390625,2801.581,-34.0625,-7.8125,12.5
269,2811.305,10.17578125,-0.05859375,-0.18359375,2811.41,0.001953125,-0.044921875,0.001953125,2811.461,-33.0625,-8.5,9.5
270,2823.954,10.13671875,-0.06640625,-0.11328125,2823.779,-0.005859375,-0.119140625,0.005859375,2823.904,-33.625,-8.625,12.375
271,2841.433,10.15234375,-0.10546875,-0.21875,2841.442,-0.005859375,-0.2265625,0.0078125,2841.417,-33.4375,-8.25,11.0
272,2853.7720000000004,10.140625,-0.125,-0.296875,2853.78,-0.01171875,-0.234375,-0.001953125,2853.949,-33.875,-7.5625,12.4375
273,2861.362,10.234375,-0.15234375,-0.375,2861.371,0.00390625,-0.21484375,0.015625,2861.364,-33.875,-7.5625,12.4375
274,2871.503,9.44140625,-0.02734375,0.62109375,2871.311,0.0,-0.029296875,0.0078125,2871.494,-33.875,-7.5625,12.4375
275,2891.3509999999997,10.30078125,-0.125,-0.48046875,2891.376,0.00390625,-0.00390625,-0.001953125,2891.6110000000003,-33.875,-7.5625,12.4375
276,2901.4120000000003,10.15234375,-0.09765625,-0.2890625,2898.884,-0.00390625,-0.005859375,-0.005859375,2901.5930000000003,-33.4375,-8.1875,13.0625
277,2911.45,10.19140625,-0.06640625,-0.3828125,2908.974,0.00390625,-0.00390625,0.00390625,2911.255,-33.4375,-8.1875,13.0625
278,2921.3360000000002,10.17578125,-0.125,-0.40234375,2918.848,0.001953125,0.001953125,0.00390625,2921.343,-33.5,-8.0,13.8125
279,2941.591,10.203125,-0.0390625,-0.36328125,2941.424,0.0,-0.005859375,-0.001953125,2941.569,-33.1875,-8.1875,13.0
280,2950.802,10.18359375,-0.05859375,-0.35546875,2948.93,0.0078125,0.001953125,0.001953125,2950.809,-33.8125,-8.0,11.8125
281,2964.1890000000003,10.171875,-0.0390625,-0.34375,2963.994,0.00390625,0.005859375,0.001953125,2964.1000000000004,-33.8125,-8.0,11.8125
282,2971.435,10.1953125,-0.05859375,-0.31640625,2971.39,0.005859375,-0.001953125,-0.005859375,2971.416,-33.8125,-7.8125,11.8125
283,2981.5190000000002,10.15625,-0.125,-0.34375,2981.475,0.001953125,-0.001953125,0.005859375,2981.46,-32.625,-8.0,12.25
284,3001.42,10.19140625,-0.0859375,-0.3359375,3001.3779999999997,-0.005859375,0.005859375,0.001953125,3001.426,-33.5625,-8.0,11.75
285,3013.8379999999997,10.19140625,-0.0859375,-0.32421875,3013.819,0.001953125,-0.005859375,0.001953125,3013.952,-33.75,-8.4375,13.75
286,3024.058,10.20703125,-0.14453125,-0.296875,3021.499,-0.01171875,0.0,-0.001953125,3023.866,-33.875,-7.8125,12.4375
287,3031.551,10.19921875,-0.10546875,-0.3359375,3031.552,0.00390625,0.00390625,-0.005859375,3031.54,-33.4375,-8.1875,13.0625
288,3043.808,10.18359375,-0.14453125,-0.3046875,3041.4829999999997,-0.001953125,-0.0078125,0.00390625,3043.7340000000004,-32.8125,-9.0625,12.125
289,3063.3720000000003,10.15625,-0.09765625,-0.36328125,3061.499,0.005859375,0.00390625,0.0,3063.345,-33.9375,-8.25,13.1875
290,3071.3140000000003,10.17578125,-0.078125,-0.32421875,3068.942,0.005859375,-0.005859375,-0.005859375,3071.425,-33.5,-7.75,13.8125
291,3081.044,10.1171875,-0.078125,-0.32421875,3078.9460000000004,0.00390625,-0.001953125,0.005859375,3081.049,-33.5,-7.75,13.8125
292,3091.026,10.16015625,-0.06640625,-0.40234375,3088.897,-0.00390625,0.001953125,-0.013671875,3091.031,-33.6875,-8.0,13.125
293,3102.822,10.1875,-0.09765625,-0.4296875,3101.428,0.00390625,0.0,0.00390625,3102.828,-34.0,-8.0,13.9375
294,3121.536,10.203125,-0.046875,-0.34375,3121.5519999999997,-0.001953125,0.005859375,0.0,3121.5389999999998,-32.5,-8.0,11.5
295,3131.675,10.13671875,-0.0390625,-0.296875,3131.44,-0.01171875,0.005859375,-0.015625,3131.367,-33.8125,-8.625,11.8125
296,3144.016,10.1875,-0.0390625,-0.3359375,3144.0389999999998,0.0,0.00390625,-0.009765625,3144.01,-33.125,-7.75,13.0
297,3154.035,10.1953125,-0.078125,-0.2890625,3153.839,0.00390625,-0.005859375,-0.0078125,3154.082,-33.0625,-8.0,12.375
298,3171.475,10.14453125,-0.0859375,-0.39453125,3171.485,-0.00390625,-0.00390625,0.00390625,3171.696,-33.4375,-8.4375,13.0625
299,3183.877,10.20703125,-0.14453125,-0.31640625,3181.345,-0.00390625,0.01171875,-0.00390625,3183.685,-33.0625,-8.0625,9.5625
300,3193.641,10.171875,-0.14453125,-0.32421875,3191.458,0.01171875,-0.0078125,0.0078125,3193.647,-32.875,-8.0,12.9375
301,3213.392,10.11328125,-0.10546875,-0.3359375,3211.3619999999996,-0.0078125,-0.001953125,-0.009765625,3213.504,-33.4375,-7.5625,11.125
302,3223.2780000000002,10.20703125,-0.125,-0.296875,3221.5539999999996,0.0,-0.001953125,-0.00390625,3223.35,-32.75,-8.25,11.5625
303,3231.202,10.1953125,-0.14453125,-0.39453125,3229.094,0.0078125,0.00390625,0.001953125,3231.314,-33.875,-8.25,12.5625
304,3241.132,10.19140625,-0.0859375,-0.3359375,3239.171,0.0,0.005859375,-0.001953125,3241.101,-33.375,-8.25,12.4375
305,3252.972,10.15625,-0.05859375,-0.3046875,3251.479,-0.0078125,-0.00390625,-0.00390625,3252.979,-33.5,-7.75,13.8125
306,3270.82,10.18359375,-0.01953125,-0.36328125,3269.33,-0.005859375,0.0,0.009765625,3270.712,-33.8125,-8.25,11.8125
307,3284.0009999999997,10.17578125,-0.046875,-0.3359375,3283.8059999999996,0.005859375,0.0,-0.005859375,3283.912,-33.6875,-8.0,13.125
308,3291.71,10.1875,-0.078125,-0.375,3291.6639999999998,0.00390625,-0.001953125,0.001953125,3291.6929999999998,-33.25,-8.4375,11.0
309,3313.8390000000004,10.20703125,-0.0859375,-0.31640625,3313.964,-0.00390625,0.0,-0.00390625,3314.082,-32.9375,-8.0,11.0
310,3321.519,10.16015625,-0.06640625,-0.35546875,3321.5099999999998,0.0,-0.005859375,-0.001953125,3321.44,-32.6875,-8.0,10.875
311,3331.532,10.171875,-0.09765625,-0.3046875,3331.569,0.00390625,0.00390625,-0.0078125,3331.781,-33.1875,-7.8125,11.0625
312,3343.8940000000002,10.1953125,-0.125,-0.32421875,3341.4860000000003,0.005859375,-0.00390625,0.01171875,3343.703,-33.4375,-8.625,13.0625
313,3363.663,10.171875,-0.1328125,-0.34375,3361.477,-0.005859375,-0.005859375,-0.005859375,3363.6659999999997,-33.5625,-7.8125,11.75
314,3373.5119999999997,10.18359375,-0.10546875,-0.36328125,3371.505,-0.005859375,0.001953125,-0.005859375,3373.5179999999996,-33.25,-8.4375,13.75
315,3383.2490000000003,10.17578125,-0.0859375,-0.35546875,3381.6259999999997,-0.001953125,0.001953125,-0.009765625,3383.344,-33.8125,-8.25,11.8125
316,3393.9689999999996,10.19140625,-0.06640625,-0.34375,3394.047,-0.005859375,0.00390625,-0.0078125,3393.903,-33.25,-8.0,13.75
317,3411.542,10.11328125,-0.09765625,-0.34375,3411.575,0.0,-0.01953125,0.001953125,3411.483,-33.6875,-8.0,13.125
318,3421.616,10.1796875,-0.05859375,-0.3359375,3421.817,0.009765625,-0.04296875,-0.00390625,3421.5429999999997,-32.75,-8.25,11.5625
319,3431.4429999999998,10.19140625,-0.046875,-0.34375,3431.548,0.00390625,-0.044921875,0.015625,3431.543,-33.6875,-7.75,13.125
320,3454.009,10.171875,-0.0390625,-0.36328125,3454.0130000000004,0.001953125,-0.00390625,0.00390625,3454.119,-33.9375,-7.75,13.1875
321,3461.747,10.1875,-0.078125,-0.32421875,3461.469,-0.001953125,0.005859375,-0.00390625,3461.453,-33.0625,-8.0,12.375
322,3476.108,10.203125,-0.1328125,-0.36328125,3474.084,-0.009765625,0.005859375,0.005859375,3476.113,-32.875,-8.1875,12.9375
323,3481.594,10.1953125,-0.10546875,-0.34375,3481.529,0.00390625,0.005859375,0.00390625,3481.498,-33.4375,-7.8125,11.125
324,3491.603,10.15234375,-0.14453125,-0.36328125,3491.612,-0.001953125,0.01171875,-0.005859375,3491.517,-33.4375,-7.8125,11.125
325,3513.612,10.1796875,-0.09765625,-0.3828125,3511.516,-0.005859375,0.0,-0.013671875,3513.722,-33.0,-7.8125,11.625
326,3523.536,10.171875,-0.078125,-0.35546875,3521.5809999999997,0.00390625,-0.001953125,-0.0078125,3523.645,-33.1875,-8.25,11.0
327,3533.493,10.1484375,-0.14453125,-0.32421875,3531.542,-0.00390625,0.01171875,-0.005859375,3533.605,-34.25,-8.875,13.25
328,3543.378,10.171875,-0.09765625,-0.3359375,3541.507,-0.00390625,0.0,0.0,3543.4719999999998,-32.5,-8.25,10.8125
329,3551.616,10.16015625,-0.14453125,-0.39453125,3551.638,-0.005859375,0.001953125,-0.013671875,3551.764,-33.625,-8.4375,12.5
330,3561.511,10.18359375,-0.09765625,-0.3046875,3561.5350000000003,-0.005859375,0.013671875,-0.0078125,3561.652,-32.625,-8.0,12.25
331,3572.991,10.1796875,-0.0859375,-0.2890625,3571.6290000000004,0.005859375,0.013671875,0.001953125,3572.998,-33.625,-7.8125,12.5
332,3581.854,10.18359375,-0.078125,-0.34375,3581.675,0.005859375,0.0234375,0.00390625,3581.562,-33.4375,-7.75,13.0625
333,3601.694,10.11328125,-0.09765625,-0.296875,3601.616,0.00390625,0.0078125,0.001953125,3601.5009999999997,-33.4375,-8.1875,13.0625
334,3611.6000000000004,10.1015625,-0.046875,-0.35546875,3611.516,0.00390625,-0.0078125,-0.001953125,3611.406,-33.0,-8.0,11.625
335,3631.7050000000004,10.1796875,-0.1328125,-0.32421875,3631.6389999999997,-0.00390625,-0.025390625,0.009765625,3631.609,-33.8125,-8.4375,11.8125
336,3641.474,10.18359375,-0.06640625,-0.3828125,3641.4900000000002,-0.001953125,-0.01171875,0.001953125,3641.538,-33.0625,-7.75,12.375
337,3651.663,10.17578125,-0.078125,-0.32421875,3651.623,-0.0078125,-0.013671875,0.00390625,3651.637,-32.75,-8.25,11.5625
338,3661.7540000000004,10.11328125,-0.10546875,-0.32421875,3661.562,0.0,-0.025390625,0.0078125,3661.73,-32.75,-8.25,11.5625
339,3673.854,10.13671875,-0.10546875,-0.40234375,3671.469,0.009765625,-0.0234375,0.0,3673.701,-33.0,-8.25,11.625
340,3691.544,10.18359375,-0.125,-0.3046875,3689.0420000000004,-0.001953125,-0.00390625,-0.005859375,3691.453,-33.0,-8.0,11.625
341,3701.382,10.1796875,-0.0859375,-0.36328125,3698.983,0.0078125,-0.001953125,-0.009765625,3701.4939999999997,-33.1875,-8.1875,13.0
342,3711.296,10.1953125,-0.125,-0.375,3709.061,-0.00390625,-0.009765625,-0.00390625,3711.191,-33.6875,-7.5625,13.125
343,3723.2470000000003,10.109375,-0.10546875,-0.35546875,3721.563,-0.013671875,-0.005859375,-0.00390625,3723.254,-33.9375,-8.25,13.1875
344,3741.7090000000003,10.19140625,-0.0859375,-0.375,3741.956,0.00390625,-0.009765625,-0.00390625,3741.7780000000002,-33.375,-8.375,15.125
345,3754.061,10.19921875,-0.06640625,-0.3359375,3754.066,0.005859375,-0.017578125,0.00390625,3754.175,-33.75,-8.0,13.875
346,3761.972,10.171875,-0.078125,-0.35546875,3761.631,0.0,-0.015625,0.009765625,3761.574,-33.5625,-8.25,11.75
347,3781.895,10.14453125,-0.05859375,-0.40234375,3781.478,-0.00390625,-0.00390625,0.001953125,3781.601,-33.375,-7.5625,13.0625
348,3791.6850000000004,10.18359375,-0.078125,-0.40234375,3791.621,0.00390625,0.009765625,-0.00390625,3791.589,-33.1875,-8.0,11.0625
349,3801.473,10.140625,-0.11328125,-0.3359375,3801.482,-0.01171875,0.0078125,-0.0078125,3801.587,-33.1875,-8.0,11.0625
350,3814.066,10.17578125,-0.09765625,-0.36328125,3811.69,-0.00390625,-0.009765625,-0.001953125,3813.875,-33.125,-8.0,13.0
351,3833.7819999999997,10.13671875,-0.11328125,-0.3828125,3831.509,-0.001953125,-0.0078125,0.0,3833.89,-32.625,-8.0,12.25
352,3843.5350000000003,10.18359375,-0.1328125,-0.40234375,3841.569,0.00390625,-0.001953125,0.0078125,3843.645,-33.125,-8.625,10.25
353,3853.483,10.18359375,-0.09765625,-0.375,3851.696,0.013671875,0.015625,-0.01953125,3853.578,-33.875,-8.25,12.5625
354,3861.781,10.1953125,-0.10546875,-0.31640625,3861.686,0.001953125,0.025390625,0.0078125,3861.557,-33.4375,-8.4375,13.0625
355,3881.6220000000003,10.22265625,-0.11328125,-0.32421875,3881.5550000000003,0.0,0.00390625,-0.001953125,3881.567,-33.5625,-8.625,11.6875
356,3891.72,10.15234375,-0.11328125,-0.3359375,3891.909,-0.009765625,-0.00390625,0.001953125,3891.6349999999998,-33.25,-8.8125,13.75
357,3901.685,10.1796875,-0.078125,-0.375,3901.859,-0.001953125,-0.009765625,-0.005859375,3901.7200000000003,-33.6875,-8.4375,13.125
358,3911.6420000000003,10.18359375,-0.05859375,-0.3828125,3911.596,0.005859375,-0.0078125,0.00390625,3911.623,-34.4375,-8.0,15.375
359,3932.048,10.19140625,-0.11328125,-0.36328125,3931.7709999999997,0.0,0.001953125,-0.00390625,3931.755,-33.375,-7.75,12.4375
360,3941.628,10.1796875,-0.06640625,-0.375,3941.6380000000004,-0.001953125,0.0,-0.001953125,3941.612,-33.375,-7.75,12.4375
361,3953.977,10.16015625,-0.0859375,-0.375,3954.102,0.00390625,-0.017578125,0.00390625,3954.158,-33.6875,-8.1875,13.125
362,3964.07,10.17578125,-0.0859375,-0.34375,3961.5170000000003,0.001953125,-0.0078125,-0.005859375,3964.086,-33.375,-8.0,12.4375
363,3983.879,10.1484375,-0.11328125,-0.36328125,3981.681,-0.001953125,-0.046875,0.00390625,3983.888,-33.0,-8.625,11.5625
364,3993.5429999999997,10.171875,-0.0859375,-0.41015625,3991.521,-0.001953125,-0.0390625,-0.00390625,3993.551,-32.6875,-7.8125,10.9375
365,4001.631,10.15234375,-0.06640625,-0.39453125,3999.149,-0.0078125,-0.033203125,0.00390625,4001.74,-33.4375,-8.625,13.0625
366,4011.5869999999995,10.15625,-0.078125,-0.32421875,4009.2540000000004,0.00390625,-0.025390625,0.00390625,4011.499,-32.75,-8.25,11.5625
367,4021.35,10.171875,-0.10546875,-0.34375,4019.3570000000004,0.00390625,-0.0234375,-0.009765625,4021.4610000000002,-33.1875,-8.0,11.0625
368,4041.646,10.15234375,-0.078125,-0.39453125,4041.5789999999997,-0.001953125,-0.017578125,0.00390625,4041.59,-33.3125,-8.1875,14.375
369,4051.682,10.16015625,-0.09765625,-0.41015625,4051.83,0.0,-0.0234375,0.001953125,4051.798,-33.9375,-8.0,13.1875
370,4061.751,10.20703125,-0.0859375,-0.35546875,4061.657,0.005859375,-0.01171875,0.00390625,4061.751,-32.875,-8.625,10.1875
371,4071.809,10.14453125,-0.10546875,-0.36328125,4071.6679999999997,0.009765625,0.001953125,-0.01171875,4071.611,-33.3125,-8.1875,14.375
372,4086.628,10.1796875,-0.05859375,-0.41015625,4084.2470000000003,-0.005859375,-0.001953125,0.001953125,4086.633,-33.125,-8.0,10.3125
373,4096.277,10.1484375,-0.01953125,-0.40234375,4094.0310000000004,-0.00390625,0.0,0.00390625,4096.282,-33.8125,-8.25,11.8125
374,4111.769,10.19140625,-0.09765625,-0.41015625,4111.589,-0.005859375,0.021484375,0.00390625,4111.634,-33.5,-8.0,13.8125
375,4121.746,10.171875,-0.09765625,-0.39453125,4121.753,0.00390625,0.01171875,0.001953125,4121.936,-33.5,-8.0,13.8125
376,4133.923000000001,10.1796875,-0.125,-0.4296875,4131.649,-0.001953125,0.015625,0.005859375,4133.892000000001,-32.9375,-8.0,13.6875
377,4153.527,10.140625,-0.046875,-0.39453125,4151.905,0.001953125,0.013671875,0.001953125,4153.62,-33.8125,-7.8125,11.8125
378,4163.552000000001,10.18359375,-0.09765625,-0.39453125,4161.773,0.0078125,0.013671875,-0.005859375,4163.554999999999,-33.625,-8.25,12.5
379,4173.464,10.12109375,-0.11328125,-0.2890625,4171.763999999999,-0.001953125,0.0234375,0.0,4173.494,-33.5,-8.4375,13.8125
380,4183.304999999999,10.1796875,-0.09765625,-0.35546875,4181.8730000000005,-0.00390625,0.00390625,-0.005859375,4183.308,-33.625,-8.25,12.5
381,4191.773,10.16015625,-0.1328125,-0.3828125,4191.689,-0.001953125,-0.0078125,0.00390625,4191.701,-32.9375,-8.25,10.9375
382,4201.746,10.17578125,-0.09765625,-0.3828125,4201.8240000000005,0.013671875,-0.001953125,0.0078125,4201.857,-33.375,-8.625,12.375
383,4211.704,10.19140625,-0.09765625,-0.3359375,4211.853,0.0,0.005859375,-0.001953125,4211.674999999999,-33.0,-8.8125,13.625
384,4234.1410000000005,10.1875,-0.09765625,-0.40234375,4234.146,-0.001953125,0.00390625,0.0078125,4234.255,-33.875,-8.25,12.5625
385,4241.867,10.18359375,-0.10546875,-0.34375,4241.645,0.00390625,-0.0078125,-0.00390625,4241.675,-33.375,-8.25,12.4375
386,4256.322,10.1875,-0.10546875,-0.41015625,4254.099,-0.001953125,-0.017578125,-0.0078125,4256.329,-34.0,-7.5625,13.9375
387,4261.77,10.15234375,-0.09765625,-0.36328125,4261.7,-0.00390625,-0.025390625,-0.005859375,4261.67,-33.0625,-8.1875,12.375
388,4284.001,10.1328125,-0.09765625,-0.44921875,4281.8009999999995,0.00390625,-0.01171875,0.001953125,4284.005999999999,-33.9375,-8.625,13.1875
389,4293.983,10.17578125,-0.078125,-0.41015625,4291.76,-0.001953125,0.0,0.001953125,4293.7919999999995,-33.375,-8.25,12.4375
390,4303.758,10.15625,-0.0859375,-0.3828125,4301.713000000001,-0.001953125,-0.00390625,0.013671875,4303.7660000000005,-33.6875,-8.625,13.125
391,4321.508,10.18359375,-0.10546875,-0.36328125,4319.136,-0.015625,-0.017578125,-0.0078125,4321.517,-33.625,-8.25,12.5
392,4334.099,10.19921875,-0.06640625,-0.3359375,4334.207,0.005859375,-0.005859375,-0.005859375,4334.204,-33.25,-8.25,11.6875
393,4340.7660000000005,10.19140625,-0.10546875,-0.35546875,4339.389,-0.001953125,-0.009765625,0.005859375,4340.773,-33.25,-8.25,11.6875
394,4353.224,10.20703125,-0.0859375,-0.36328125,4351.693,-0.001953125,0.0078125,0.0,4353.119000000001,-33.6875,-8.0,13.125
395,4361.79,10.171875,-0.11328125,-0.3828125,4361.992,0.0078125,-0.0078125,0.00390625,4361.735000000001,-33.5,-8.1875,13.8125
396,4371.666,10.17578125,-0.10546875,-0.375,4371.772,0.001953125,0.017578125,-0.005859375,4371.823,-33.375,-8.4375,12.4375
397,4381.704,10.109375,-0.078125,-0.36328125,4381.842,-0.01171875,0.013671875,-0.017578125,4381.713000000001,-33.5,-8.0,13.8125
398,4401.783,10.19140625,-0.0859375,-0.41015625,4401.703,-0.001953125,0.01171875,-0.001953125,4401.792,-33.875,-7.8125,12.5625
399,4412.036999999999,10.171875,-0.06640625,-0.40234375,4411.819,-0.00390625,0.017578125,0.0078125,4411.743,-33.875,-8.25,12.5625
400,4421.76,10.15625,-0.15234375,-0.44140625,4421.721,0.005859375,0.01171875,0.009765625,4421.722,-34.25,-8.0,14.0
401,4431.724,10.1796875,-0.09765625,-0.36328125,4431.732,-0.0078125,0.0,-0.00390625,4431.838,-34.25,-8.0,14.0
402,4453.879,10.1328125,-0.09765625,-0.4296875,4451.676,0.00390625,0.025390625,0.0078125,4453.883,-33.5625,-7.75,14.5
403,4463.882,10.18359375,-0.078125,-0.3828125,4461.876,0.0,0.033203125,-0.00390625,4463.69,-33.4375,-8.625,13.0625
404,4471.711,10.1484375,-0.0859375,-0.3359375,4469.192999999999,0.015625,0.033203125,0.0,4471.621,-34.0,-8.1875,13.9375
405,4481.553,10.16015625,-0.09765625,-0.3359375,4479.152,-0.00390625,0.02734375,-0.00390625,4481.461,-34.0,-8.625,13.9375
406,4493.417,10.1875,-0.09765625,-0.40234375,4491.809,0.009765625,0.001953125,0.001953125,4493.423,-32.75,-8.0,11.5625
407,4504.276,10.14453125,-0.10546875,-0.35546875,4504.2970000000005,0.001953125,-0.0078125,-0.009765625,4504.369,-34.0625,-8.25,9.875
408,4524.302,10.1953125,-0.06640625,-0.3828125,4524.275000000001,-0.005859375,-0.015625,-0.005859375,4524.241,-32.8125,-8.1875,12.3125
409,4534.319,10.22265625,-0.09765625,-0.3828125,4534.253,0.01171875,-0.01171875,-0.00390625,4534.221,-33.9375,-8.25,10.5
410,4544.372,10.16015625,-0.0859375,-0.375,4544.3369999999995,0.00390625,0.005859375,-0.00390625,4544.347,-33.875,-8.25,12.5625
411,4554.1900000000005,10.140625,-0.09765625,-0.36328125,4554.1939999999995,0.001953125,0.033203125,0.00390625,4554.311000000001,-33.625,-8.25,12.5
412,4564.425,10.140625,-0.046875,-0.375,4564.202,0.0,0.0234375,-0.0078125,4564.314,-33.75,-8.0,13.875
413,4574.302000000001,10.1796875,-0.10546875,-0.375,4574.2609999999995,-0.00390625,0.0234375,-0.001953125,4574.233,-33.375,-8.0,12.4375
414,4594.157,10.18359375,-0.0390625,-0.40234375,4591.836,0.005859375,0.01171875,0.0,4594.253,-32.625,-8.8125,12.1875
415,4604.056,10.15234375,-0.05859375,-0.375,4601.867,0.0,-0.0078125,0.01171875,4603.95,-33.9375,-8.625,13.1875
416,4611.869000000001,10.18359375,-0.10546875,-0.40234375,4611.668,-0.00390625,-0.009765625,0.0,4611.992,-33.6875,-8.1875,13.125
417,4631.593,10.140625,-0.11328125,-0.421875,4629.434,0.001953125,-0.001953125,-0.0078125,4631.701,-33.375,-8.0,12.4375
418,4641.572,10.15625,-0.0859375,-0.36328125,4639.263,0.005859375,0.001953125,-0.0078125,4641.575,-33.5,-7.75,13.8125
419,4651.846,10.20703125,-0.0859375,-0.34375,4651.862,-0.005859375,0.0078125,-0.013671875,4651.888,-34.125,-8.4375,12.625
420,4663.265,10.19921875,-0.0859375,-0.296875,4661.683,0.0,0.009765625,-0.00390625,4663.069,-34.125,-8.0,12.625
421,4673.14,10.19140625,-0.1328125,-0.34375,4671.781,-0.005859375,0.0078125,0.001953125,4672.947,-33.6875,-8.8125,13.125
422,4694.374,10.16015625,-0.1328125,-0.35546875,4694.196,0.00390625,-0.001953125,0.005859375,4694.481,-33.625,-8.25,12.5
423,4704.334,10.140625,-0.0859375,-0.40234375,4704.355,-0.001953125,-0.00390625,0.0078125,4704.327,-34.125,-7.5625,12.625
424,4714.441,10.19140625,-0.05859375,-0.36328125,4714.2,-0.001953125,-0.0078125,0.001953125,4714.228999999999,-33.9375,-8.0,13.1875
425,4724.346,10.1796875,-0.06640625,-0.39453125,4724.305,0.001953125,0.015625,-0.001953125,4724.277,-33.625,-7.8125,12.5
426,4744.264,10.15234375,-0.09765625,-0.4296875,4741.722000000001,0.00390625,0.00390625,-0.005859375,4744.285,-33.8125,-8.625,11.8125
427,4754.21,10.1328125,-0.09765625,-0.3828125,4751.86,0.00390625,-0.005859375,0.005859375,4754.123,-33.875,-8.25,12.5625
428,4764.111,10.18359375,-0.078125,-0.34375,4761.880999999999,-0.001953125,0.005859375,0.0078125,4764.116999999999,-33.5,-7.5625,11.75
429,4783.746,10.17578125,-0.05859375,-0.3359375,4781.893,0.0078125,0.001953125,-0.005859375,4783.556,-34.375,-8.0,12.6875
430,4793.631,10.16015625,-0.078125,-0.34375,4791.842,-0.00390625,0.001953125,-0.00390625,4793.437,-33.0,-8.1875,13.6875
431,4804.398,10.13671875,-0.078125,-0.35546875,4804.304,0.00390625,-0.001953125,0.00390625,4804.399,-32.8125,-7.75,12.3125
432,4811.503,10.23046875,-0.0859375,-0.44140625,4809.221,0.0078125,-0.001953125,-0.005859375,4811.508,-32.8125,-7.75,12.3125
433,4824.287,10.15625,-0.09765625,-0.31640625,4824.307,0.001953125,0.0078125,0.0078125,4824.38,-33.8125,-7.8125,11.8125
434,4844.24,10.1953125,-0.1328125,-0.296875,4844.174,0.0078125,0.00390625,0.0,4844.342000000001,-33.125,-7.75,13.0
435,4854.487,10.15234375,-0.14453125,-0.36328125,4854.241,-0.005859375,0.009765625,0.013671875,4854.250999999999,-33.8125,-8.0,11.8125
436,4864.442,10.18359375,-0.09765625,-0.3359375,4864.407,0.005859375,0.009765625,0.00390625,4864.416,-33.6875,-8.25,10.375
437,4882.128,10.15625,-0.11328125,-0.32421875,4881.711,0.00390625,0.0,0.00390625,4881.839,-33.625,-8.25,12.5
438,4891.871,10.1875,-0.0859375,-0.35546875,4891.831,0.001953125,0.0078125,0.00390625,4891.835,-34.0,-8.1875,13.9375
439,4902.019,10.12109375,-0.078125,-0.36328125,4901.817999999999,0.0,0.0078125,-0.005859375,4901.9839999999995,-33.5625,-8.4375,14.4375
440,4923.841,10.17578125,-0.0859375,-0.3828125,4921.820000000001,-0.00390625,-0.00390625,-0.005859375,4923.91,-33.6875,-8.4375,13.125
441,4934.335,10.21875,-0.0859375,-0.3359375,4934.368,-0.001953125,-0.001953125,0.01171875,4934.295,-33.8125,-8.25,11.8125
442,4941.611,10.16015625,-0.078125,-0.34375,4939.334,0.009765625,-0.001953125,-0.005859375,4941.724,-33.0625,-8.1875,12.375
443,4951.648999999999,10.19140625,-0.0859375,-0.3046875,4949.264999999999,-0.00390625,0.0,-0.001953125,4951.797,-33.5625,-7.75,14.5
444,4961.86,10.16015625,-0.0859375,-0.375,4961.88,0.001953125,0.001953125,0.0078125,4961.805,-33.3125,-8.4375,11.6875
445,4983.234,10.15234375,-0.06640625,-0.41015625,4981.884,0.01171875,0.001953125,-0.001953125,4983.240000000001,-34.3125,-8.4375,14.0
446,4993.1140000000005,10.13671875,-0.078125,-0.35546875,4991.842000000001,0.0078125,0.0,0.0078125,4993.12,-33.375,-8.25,12.4375
447,5004.303,10.15625,-0.0859375,-0.35546875,5004.224,0.005859375,0.001953125,0.005859375,5004.227,-33.9375,-8.25,13.1875
448,5014.29,10.16015625,-0.05859375,-0.34375,5014.308,0.0,-0.001953125,0.00390625,5014.383,-33.375,-7.75,12.4375
449,5024.424,10.1875,-0.078125,-0.375,5024.428999999999,0.005859375,0.00390625,0.00390625,5024.402,-33.5,-8.0,11.125
450,5034.44,10.1328125,-0.09765625,-0.35546875,5034.198,0.001953125,-0.001953125,-0.005859375,5034.27,-33.75,-8.4375,13.875
451,5044.393999999999,10.140625,-0.11328125,-0.32421875,5044.354,0.00390625,0.001953125,-0.00390625,5044.324,-34.0625,-8.25,11.875
452,5064.129,10.15625,-0.125,-0.34375,5061.982999999999,0.00390625,-0.001953125,0.005859375,5064.24,-33.8125,-8.0,14.5
453,5074.009,10.19140625,-0.10546875,-0.34375,5071.7429999999995,0.00390625,0.001953125,0.0,5074.0160000000005,-33.375,-8.25,12.4375
454,5083.955,10.15625,-0.06640625,-0.421875,5081.932,0.00390625,0.001953125,0.0,5083.964,-33.5625,-8.0,11.75
455,5094.428,10.1484375,-0.09765625,-0.375,5094.637,-0.001953125,0.0,-0.005859375,5094.405,-33.25,-8.25,11.6875
456,5101.6849999999995,10.1953125,-0.05859375,-0.36328125,5099.2699999999995,0.009765625,-0.0078125,0.005859375,5101.693,-33.25,-8.25,11.6875
457,5114.319,10.15234375,-0.0859375,-0.40234375,5114.225,-0.00390625,-0.009765625,-0.005859375,5114.474999999999,-33.875,-8.25,9.8125
458,5133.348,10.18359375,-0.09765625,-0.39453125,5132.062999999999,-0.001953125,-0.00390625,-0.00390625,5133.355,-32.875,-8.4375,12.9375
459,5144.455,10.1796875,-0.0859375,-0.36328125,5144.277,-0.00390625,-0.009765625,0.009765625,5144.576,-33.5,-8.1875,13.8125
460,5154.378000000001,10.20703125,-0.10546875,-0.39453125,5154.4,0.00390625,0.01171875,0.00390625,5154.47,-34.3125,-8.1875,14.0
461,5164.594,10.15234375,-0.06640625,-0.3359375,5164.419,0.009765625,0.001953125,0.0078125,5164.479,-33.5625,-7.8125,11.75
462,5184.564,10.16015625,-0.10546875,-0.40234375,5184.326,0.001953125,0.00390625,-0.005859375,5184.453,-34.0625,-8.0,11.875
463,5194.439,10.16015625,-0.09765625,-0.3046875,5194.356,-0.001953125,0.00390625,0.001953125,5194.261,-33.75,-7.75,13.875
464,5204.3150000000005,10.1875,-0.078125,-0.39453125,5201.901000000001,-0.001953125,0.005859375,-0.013671875,5204.4259999999995,-33.8125,-8.4375,11.8125
465,5211.981,10.1875,-0.06640625,-0.39453125,5211.786,-0.005859375,-0.00390625,0.00390625,5211.9710000000005,-33.8125,-8.4375,11.8125
466,5224.068,10.20703125,-0.0859375,-0.34375,5221.9,0.0078125,0.005859375,-0.00390625,5224.179,-33.5625,-8.25,11.75
467,5234.015,10.1875,-0.09765625,-0.36328125,5231.762,-0.00390625,0.009765625,-0.0078125,5234.022000000001,-33.9375,-8.25,13.1875
468,5254.384,10.171875,-0.06640625,-0.31640625,5254.46,0.001953125,0.005859375,-0.001953125,5254.543,-33.25,-8.0,11.6875
469,5261.714,10.17578125,-0.06640625,-0.375,5259.227,-0.0078125,0.005859375,0.0,5261.722,-33.25,-8.0,11.6875
470,5271.621999999999,10.16015625,-0.05859375,-0.36328125,5269.46,0.001953125,0.0078125,-0.001953125,5271.631,-33.25,-8.0,11.6875
471,5294.406,10.171875,-0.0859375,-0.3359375,5294.43,-0.001953125,0.0078125,0.00390625,5294.496999999999,-33.0,-8.25,11.625
472,5304.447999999999,10.171875,-0.0859375,-0.421875,5304.42,-0.00390625,-0.00390625,-0.001953125,5304.387000000001,-34.0625,-8.1875,14.5625
473,5314.443,10.18359375,-0.078125,-0.34375,5314.396000000001,0.001953125,0.001953125,-0.005859375,5314.365,-33.625,-8.25,12.5
474,5324.505,10.1875,-0.09765625,-0.40234375,5324.514,0.001953125,-0.009765625,-0.001953125,5324.567,-33.9375,-7.75,13.1875
475,5334.51,10.17578125,-0.0390625,-0.375,5334.474,-0.00390625,-0.009765625,-0.00390625,5334.4839999999995,-33.3125,-8.4375,11.6875
476,5344.539,10.12109375,-0.10546875,-0.3828125,5344.498,0.005859375,-0.013671875,0.00390625,5344.426,-32.9375,-8.4375,10.9375
477,5364.347000000001,10.1796875,-0.10546875,-0.41015625,5362.002,0.0,-0.001953125,-0.01171875,5364.352,-33.8125,-8.0,11.8125
478,5374.327,10.11328125,-0.0859375,-0.31640625,5371.984,0.00390625,-0.001953125,0.009765625,5374.332,-33.5625,-8.25,11.75
479,5384.218,10.15625,-0.078125,-0.3359375,5382.015,0.009765625,0.00390625,-0.015625,5384.285,-33.5625,-8.4375,14.4375
480,5394.16,10.18359375,-0.125,-0.3046875,5391.955,0.0,-0.009765625,-0.001953125,5393.964999999999,-33.375,-8.4375,12.4375
481,5401.84,10.21875,-0.078125,-0.35546875,5399.415,-0.01171875,-0.0234375,-0.01171875,5401.951,-34.3125,-8.625,11.875
482,5411.853,10.171875,-0.09765625,-0.375,5409.379999999999,0.005859375,-0.033203125,0.001953125,5411.861,-34.3125,-8.625,11.875
483,5431.999,10.20703125,-0.09765625,-0.3828125,5432.014999999999,0.00390625,-0.017578125,-0.001953125,5431.983,-33.625,-7.8125,10.4375
484,5441.89,10.17578125,-0.06640625,-0.375,5441.82,-0.005859375,0.001953125,0.001953125,5441.945,-33.375,-8.625,12.375
485,5454.588000000001,10.20703125,-0.078125,-0.375,5454.397,0.0,0.015625,0.001953125,5454.519,-34.0,-8.625,13.9375
486,5462.039,10.15234375,-0.0859375,-0.34375,5462.054,0.0,0.017578125,0.0078125,5462.041,-33.4375,-8.0,13.0625
487,5471.072,10.18359375,-0.078125,-0.40234375,5469.514,0.0,0.02734375,-0.0078125,5471.078,-33.4375,-8.0,13.0625
488,5491.9929999999995,10.17578125,-0.10546875,-0.3359375,5492.102,-0.001953125,0.0,0.009765625,5491.996999999999,-33.0,-8.0,11.625
489,5504.409,10.1875,-0.11328125,-0.44140625,5504.531,0.005859375,0.001953125,0.009765625,5504.655,-33.375,-8.0,12.4375
490,5514.624000000001,10.140625,-0.05859375,-0.39453125,5514.433,-0.001953125,0.01171875,0.009765625,5514.558,-33.4375,-8.1875,13.0625
491,5524.486,10.13671875,-0.0859375,-0.375,5521.928,0.00390625,0.009765625,0.00390625,5524.49,-33.0,-8.25,11.625
492,5544.27,10.171875,-0.0859375,-0.375,5541.929999999999,-0.00390625,0.0078125,-0.001953125,5544.276,-33.125,-8.4375,12.375
493,5551.857,10.17578125,-0.125,-0.2890625,5551.863,0.001953125,0.001953125,0.00390625,5552.043000000001,-33.125,-8.4375,12.375
494,5564.034000000001,10.16015625,-0.0078125,-0.375,5562.0830000000005,0.00390625,0.005859375,-0.0078125,5563.947,-33.6875,-8.4375,13.125
495,5571.854,10.171875,-0.0390625,-0.34375,5569.5740000000005,-0.00390625,-0.005859375,0.009765625,5571.93,-33.0,-8.5625,13.6875
496,5581.688,10.1875,-0.09765625,-0.31640625,5579.701,0.005859375,-0.005859375,-0.001953125,5581.797,-33.8125,-7.8125,11.8125
497,5603.392000000001,10.18359375,-0.078125,-0.34375,5602.196,0.005859375,-0.001953125,0.00390625,5603.393999999999,-33.625,-8.25,12.5
498,5611.964,10.1484375,-0.06640625,-0.40234375,5612.040999999999,-0.009765625,0.0078125,0.001953125,5612.127,-32.625,-8.0,10.125
499,5623.182,10.16015625,-0.078125,-0.3828125,5622.112,0.015625,0.005859375,-0.00390625,5623.189,-33.1875,-8.1875,13.0
500,5632.191,10.23046875,-0.1328125,-0.34375,5631.956,-0.005859375,0.0,0.0078125,5631.8859999999995,-33.75,-8.0,13.875
501,5652.008000000001,10.171875,-0.078125,-0.35546875,5651.924,-0.005859375,-0.0078125,0.005859375,5652.014,-33.4375,-7.75,13.0625
502,5662.28,10.1796875,-0.09765625,-0.35546875,5661.864,0.00390625,-0.00390625,0.00390625,5661.990000000001,-33.6875,-8.625,13.125
503,5672.041,10.15625,-0.11328125,-0.39453125,5671.974999999999,-0.001953125,-0.01171875,-0.01171875,5671.942999999999,-33.4375,-8.4375,13.0625
504,5694.409000000001,10.19140625,-0.0859375,-0.375,5692.0019999999995,-0.001953125,0.0078125,-0.005859375,5694.413,-33.0625,-8.1875,12.375
505,5704.243,10.140625,-0.11328125,-0.375,5702.023999999999,-0.001953125,0.0,0.005859375,5704.3150000000005,-34.0,-8.0,13.9375
506,5713.969,10.1796875,-0.11328125,-0.39453125,5711.936,-0.001953125,0.00390625,0.00390625,5713.974999999999,-34.375,-8.4375,12.6875
507,5734.451,10.16015625,-0.078125,-0.35546875,5734.557,-0.001953125,-0.009765625,-0.001953125,5734.553,-34.4375,-8.0,13.3125
508,5741.75,10.21875,-0.10546875,-0.35546875,5739.620000000001,0.017578125,-0.001953125,0.00390625,5741.762,-34.4375,-8.0,13.3125
509,5754.534,10.16015625,-0.078125,-0.34375,5754.64,-0.001953125,-0.021484375,0.01171875,5754.55,-34.625,-8.0,12.75
510,5767.016,10.1796875,-0.09765625,-0.3828125,5767.023,-0.00390625,-0.0234375,0.0,5767.204000000001,-33.375,-8.4375,12.4375
511,5772.11,10.13671875,-0.06640625,-0.296875,5772.127,-0.001953125,-0.02734375,-0.00390625,5772.1140000000005,-33.25,-8.25,11.6875
512,5781.117,10.1796875,-0.0859375,-0.36328125,5779.6089999999995,-0.005859375,-0.02734375,0.00390625,5781.228999999999,-33.25,-8.25,11.6875
513,5804.585,10.19921875,-0.10546875,-0.375,5804.509,0.0,0.005859375,-0.0078125,5804.834,-33.9375,-8.25,13.1875
514,5814.591,10.1953125,-0.06640625,-0.4296875,5814.352000000001,0.005859375,0.015625,0.009765625,5814.4220000000005,-33.1875,-7.8125,11.0625
515,5824.545999999999,10.22265625,-0.078125,-0.41015625,5824.507,0.001953125,0.017578125,-0.0078125,5824.477,-32.875,-8.4375,10.1875
516,5844.557,10.1328125,-0.06640625,-0.375,5842.052,0.0078125,0.0234375,-0.001953125,5844.429,-33.5,-8.1875,13.8125
517,5854.09,10.15234375,-0.10546875,-0.32421875,5851.92,-0.001953125,0.013671875,0.0,5854.201,-33.5,-8.1875,13.8125
518,5864.14,10.18359375,-0.10546875,-0.36328125,5862.106,0.0078125,0.005859375,0.005859375,5864.143999999999,-33.3125,-8.375,14.375
519,5874.029,10.23828125,-0.09765625,-0.32421875,5871.863,0.00390625,0.005859375,-0.00390625,5874.035,-33.5,-8.0,13.8125
520,5883.906,10.15234375,-0.046875,-0.32421875,5882.035,0.005859375,0.0,-0.001953125,5883.913,-33.75,-8.0,13.875
521,5903.664,10.19921875,-0.0859375,-0.35546875,5901.951999999999,-0.0078125,0.015625,0.001953125,5903.674,-33.9375,-8.4375,13.1875
522,5914.707,10.17578125,-0.078125,-0.3046875,5914.531,0.00390625,0.015625,0.013671875,5914.6,-33.4375,-7.75,13.0625
523,5924.6230000000005,10.234375,-0.10546875,-0.32421875,5924.43,0.00390625,0.00390625,0.00390625,5924.454,-33.375,-8.8125,12.375
524,5934.6230000000005,10.109375,-0.09765625,-0.375,5934.57,0.005859375,0.0078125,-0.0078125,5934.539,-32.8125,-8.4375,12.25
525,5944.804999999999,10.17578125,-0.14453125,-0.35546875,5944.732,-0.001953125,0.0078125,0.005859375,5944.701,-32.75,-8.5625,13.625
526,5964.85,10.16015625,-0.0859375,-0.3046875,5964.605,-0.00390625,0.001953125,-0.001953125,5964.612,-33.4375,-8.5,10.3125
527,5976.639999999999,10.18359375,-0.0390625,-0.34375,5974.4169999999995,0.001953125,-0.00390625,-0.001953125,5976.649,-33.8125,-8.4375,14.5
528,5981.974,10.171875,-0.11328125,-0.34375,5981.906,0.005859375,-0.001953125,0.009765625,5982.076,-33.9375,-8.0,13.1875
529,5992.08,10.15234375,-0.125,-0.3828125,5992.031,-0.001953125,0.0,-0.005859375,5992.045,-33.5,-8.625,13.8125
530,6014.229,10.203125,-0.078125,-0.3828125,6011.97,0.001953125,-0.001953125,0.005859375,6014.235000000001,-33.6875,-8.1875,13.125
531,6024.125,10.1796875,-0.0859375,-0.36328125,6022.066,0.005859375,0.0,-0.0078125,6024.196,-32.6875,-8.0,10.875
532,6033.908,10.14453125,-0.05859375,-0.34375,6033.974999999999,-0.001953125,-0.001953125,-0.005859375,6033.982,-33.5,-8.0,13.8125
533,6041.811,10.20703125,-0.046875,-0.39453125,6039.601000000001,0.005859375,0.00390625,-0.00390625,6041.816,-33.5,-8.0,13.8125
534,6054.599999999999,10.15234375,-0.05859375,-0.3359375,6054.775000000001,0.001953125,-0.015625,0.00390625,6054.635,-34.375,-8.1875,14.625
535,6074.665999999999,10.19921875,-0.06640625,-0.32421875,6074.674,0.001953125,0.001953125,0.00390625,6074.652999999999,-33.3125,-8.625,11.625
536,6084.496,10.1796875,-0.11328125,-0.375,6084.522,-0.005859375,-0.0078125,0.001953125,6084.589,-33.875,-7.8125,12.5625
537,6094.614,10.15625,-0.09765625,-0.296875,6094.564,0.009765625,0.0,0.0078125,6094.5289999999995,-33.5625,-8.0,11.75
538,6104.799,10.17578125,-0.09765625,-0.34375,6104.729,-0.009765625,0.00390625,0.0078125,6104.697,-33.0,-8.0,11.625
539,6114.676,10.140625,-0.0859375,-0.36328125,6114.441,0.013671875,-0.001953125,-0.005859375,6114.650000000001,-32.875,-7.75,12.9375
540,6134.67,10.17578125,-0.10546875,-0.375,6134.4310000000005,0.001953125,0.001953125,0.005859375,6134.457,-32.625,-8.1875,12.25
541,6144.637000000001,10.19140625,-0.078125,-0.34375,6144.499,0.001953125,0.005859375,-0.001953125,6144.777999999999,-33.125,-8.0,13.0
542,6154.4980000000005,10.19140625,-0.0859375,-0.375,6152.1179999999995,0.009765625,0.00390625,-0.001953125,6154.505999999999,-32.875,-8.0,10.25
543,6164.256,10.2265625,-0.0859375,-0.3828125,6162.081999999999,0.0,-0.001953125,-0.00390625,6164.385,-33.375,-8.25,12.4375
544,6184.177,10.1796875,-0.10546875,-0.32421875,6182.1630000000005,-0.005859375,0.0,0.0,6184.183,-33.75,-8.0,11.1875
545,6194.021000000001,10.1796875,-0.09765625,-0.31640625,6192.274,0.001953125,0.015625,0.00390625,6194.027,-33.0625,-7.5625,12.375
546,6203.919,10.1796875,-0.078125,-0.32421875,6202.168000000001,0.00390625,0.00390625,0.0,6203.928999999999,-33.6875,-8.0,13.125
547,6214.706999999999,10.17578125,-0.05859375,-0.3046875,6214.812,0.005859375,0.001953125,-0.005859375,6214.762000000001,-33.5625,-8.4375,11.75
548,6221.58,10.19140625,-0.11328125,-0.3828125,6219.648,0.00390625,-0.001953125,0.0078125,6221.649,-33.5625,-8.4375,11.75
549,6244.658,10.16015625,-0.06640625,-0.25,6244.628,0.0,0.005859375,-0.00390625,6244.592,-33.1875,-7.8125,11.0625
550,6254.697,10.17578125,-0.1328125,-0.3359375,6254.632,-0.00390625,0.0,-0.009765625,6254.598,-33.0625,-8.5,9.625
551,6264.706999999999,10.18359375,-0.11328125,-0.3828125,6264.726,0.005859375,-0.001953125,-0.00390625,6264.77,-33.375,-8.4375,12.4375
552,6274.709,10.171875,-0.078125,-0.36328125,6274.675,0.00390625,-0.009765625,0.00390625,6274.683,-32.75,-7.9375,13.625
553,6294.8279999999995,10.171875,-0.09765625,-0.3359375,6294.74,0.0,0.001953125,0.0,6294.745,-33.125,-7.375,10.3125
554,6304.647,10.15234375,-0.10546875,-0.39453125,6302.1089999999995,0.00390625,-0.001953125,0.00390625,6304.791,-33.625,-7.5625,12.5
555,6312.234,10.1875,-0.11328125,-0.44140625,6311.996,-0.001953125,-0.00390625,-0.0078125,6312.208,-32.875,-8.1875,12.9375
556,6322.320000000001,10.13671875,-0.125,-0.32421875,6322.16,-0.005859375,0.001953125,-0.013671875,6322.132,-33.75,-8.4375,13.875
557,6342.094,10.1328125,-0.046875,-0.375,6339.652,-0.00390625,0.0,0.001953125,6342.168,-33.1875,-8.1875,13.0
558,6352.02,10.18359375,-0.046875,-0.34375,6349.604,0.005859375,-0.005859375,0.0,6352.209,-33.9375,-7.625,10.5
559,6362.196,10.16015625,-0.05859375,-0.3828125,6362.019,0.001953125,0.00390625,0.001953125,6362.088,-33.375,-8.25,12.4375
560,6373.775000000001,10.15625,-0.0859375,-0.31640625,6372.407,-0.001953125,0.00390625,0.001953125,6373.781,-33.4375,-8.1875,13.0625
561,6383.676,10.17578125,-0.125,-0.35546875,6382.392000000001,-0.005859375,-0.001953125,0.0078125,6383.682000000001,-33.4375,-8.0,13.0625
562,6404.501,10.171875,-0.05859375,-0.35546875,6404.525,0.001953125,0.0078125,0.00390625,6404.825,-34.125,-7.375,12.625
563,6414.576,10.20703125,-0.0859375,-0.3828125,6414.6,-0.001953125,0.0078125,-0.013671875,6414.883,-33.6875,-7.75,13.125
564,6424.726,10.1484375,-0.1328125,-0.35546875,6424.750999999999,0.009765625,0.001953125,-0.0078125,6424.721,-33.3125,-8.4375,11.6875
565,6434.695,10.203125,-0.10546875,-0.35546875,6434.657999999999,-0.00390625,-0.001953125,0.005859375,6434.67,-33.0625,-7.75,12.375
566,6444.718,10.15625,-0.0859375,-0.36328125,6444.68,0.0,-0.00390625,0.00390625,6444.649,-32.75,-8.625,11.5
567,6464.610000000001,10.1875,-0.0859375,-0.296875,6462.25,-0.001953125,-0.001953125,0.0,6464.6179999999995,-33.5625,-8.4375,14.4375
568,6474.514,10.19921875,-0.06640625,-0.375,6472.202,0.0078125,0.0,-0.013671875,6474.441,-33.8125,-8.0,11.8125
569,6484.4039999999995,10.1875,-0.0859375,-0.34375,6482.1669999999995,-0.001953125,0.0,-0.009765625,6484.407,-34.0625,-8.0,14.5625
570,6494.262,10.15234375,-0.0859375,-0.35546875,6492.0289999999995,0.005859375,0.001953125,0.001953125,6494.266,-32.5,-8.25,8.75
571,6514.103,10.2265625,-0.0390625,-0.375,6512.2119999999995,0.00390625,0.013671875,-0.015625,6514.009,-33.625,-8.4375,12.5
572,6524.591,10.19921875,-0.06640625,-0.3046875,6524.697,0.00390625,0.00390625,0.005859375,6524.746999999999,-32.9375,-8.4375,10.9375
573,6531.846,10.17578125,-0.06640625,-0.32421875,6529.589,-0.001953125,-0.005859375,0.0,6531.854,-32.9375,-8.4375,10.9375
574,6544.644,10.19140625,-0.0390625,-0.31640625,6544.669,0.001953125,-0.005859375,0.0078125,6544.736000000001,-33.625,-7.8125,12.5
575,6557.2660000000005,10.1953125,-0.05859375,-0.34375,6557.272,0.001953125,-0.0078125,-0.01171875,6557.2970000000005,-33.75,-8.0,11.1875
576,6562.273,10.19140625,-0.0859375,-0.27734375,6562.228,0.00390625,0.0,-0.0078125,6562.254,-33.5625,-7.8125,11.75
577,6587.179,10.1796875,-0.0859375,-0.35546875,6584.7660000000005,0.001953125,0.001953125,0.001953125,6587.183999999999,-33.8125,-8.4375,11.8125
578,6594.566000000001,10.171875,-0.11328125,-0.36328125,6594.575,0.00390625,0.0,0.00390625,6594.681,-33.3125,-8.4375,11.6875
579,6604.764,10.1484375,-0.0859375,-0.3359375,6604.572,0.001953125,-0.005859375,-0.009765625,6604.741,-34.0625,-8.25,11.875
580,6624.72,10.19921875,-0.0859375,-0.34375,6622.316,-0.00390625,0.001953125,0.001953125,6624.588,-33.375,-8.25,12.4375
581,6634.512,10.171875,-0.078125,-0.35546875,6632.161,-0.005859375,-0.009765625,0.00390625,6634.639,-33.5625,-8.0,11.75
582,6644.477,10.1484375,-0.0859375,-0.32421875,6642.242,-0.005859375,-0.00390625,-0.00390625,6644.48,-33.8125,-7.75,14.5625
583,6654.332,10.17578125,-0.046875,-0.375,6652.243,0.005859375,0.0,0.001953125,6654.238,-34.1875,-8.4375,13.25
584,6664.116,10.18359375,-0.046875,-0.35546875,6662.261,0.013671875,-0.001953125,0.005859375,6663.9220000000005,-32.75,-8.625,11.5
585,6673.803999999999,10.171875,-0.09765625,-0.39453125,6672.253000000001,-0.00390625,0.005859375,-0.005859375,6673.8099999999995,-33.5,-8.4375,13.8125
586,6683.867,10.1875,-0.09765625,-0.4296875,6682.1539999999995,0.009765625,0.001953125,0.005859375,6683.673,-33.875,-8.0,12.5625
587,6691.643,10.1796875,-0.1328125,-0.41015625,6689.713000000001,0.0078125,0.01171875,0.005859375,6691.652,-33.875,-8.0,12.5625
588,6714.899,10.203125,-0.05859375,-0.31640625,6714.651,0.00390625,0.00390625,-0.005859375,6714.834,-33.8125,-8.0,11.8125
589,6724.952,10.1875,-0.10546875,-0.375,6724.887,-0.001953125,0.00390625,0.00390625,6724.859,-33.875,-8.0,12.5625
590,6734.695000000001,10.15625,-0.10546875,-0.39453125,6734.734,0.001953125,0.001953125,0.001953125,6734.7789999999995,-33.8125,-8.0,11.8125
591,6756.9,10.13671875,-0.0859375,-0.3046875,6754.657,-0.005859375,-0.009765625,0.001953125,6756.905,-34.0625,-7.8125,11.875
592,6762.317,10.14453125,-0.09765625,-0.39453125,6762.049,-0.001953125,0.0,-0.001953125,6762.22,-34.0625,-8.25,11.875
593,6772.262,10.18359375,-0.0859375,-0.41015625,6772.215,0.00390625,0.001953125,-0.009765625,6772.224999999999,-34.3125,-7.75,14.6875
594,6782.225,10.17578125,-0.06640625,-0.39453125,6782.224,-0.0078125,0.001953125,-0.001953125,6782.332,-33.4375,-7.8125,11.125
595,6794.450000000001,10.19140625,-0.046875,-0.35546875,6792.194,0.00390625,-0.0078125,-0.005859375,6794.257,-33.0,-8.625,11.5625
596,6804.313999999999,10.14453125,-0.125,-0.3359375,6802.304999999999,0.00390625,-0.015625,0.00390625,6804.223,-34.3125,-8.4375,14.0
597,6822.121,10.19140625,-0.078125,-0.4609375,6819.783,0.00390625,-0.001953125,0.005859375,6822.113,-34.1875,-8.25,13.25
598,6833.9710000000005,10.15625,-0.10546875,-0.39453125,6832.286,0.0,0.0,0.0,6833.985000000001,-33.5625,-8.25,11.75
599,6843.866,10.19921875,-0.06640625,-0.375,6842.117,0.0,0.0,0.0,6843.872,-33.9375,-8.25,13.1875
600,6854.827,10.17578125,-0.0859375,-0.36328125,6854.831,0.0,0.0,0.0,6854.902,-34.0625,-8.25,11.875
601,6874.751,10.15625,-0.06640625,-0.375,6874.67,0.0,0.0,0.0,6874.761,-33.5625,-7.8125,11.75
602,6884.98,10.18359375,-0.0859375,-0.375,6884.9130000000005,0.0,0.0,0.0,6884.8820000000005,-34.1875,-8.0,13.25
603,6894.831,10.12109375,-0.11328125,-0.35546875,6894.794,0.0,0.0,0.0,6894.804,-33.375,-8.4375,12.4375
604,6904.925,10.16015625,-0.06640625,-0.3828125,6904.777,0.0,0.0,0.0,6904.744,-34.0625,-8.8125,13.9375
605,6924.823,10.17578125,-0.0859375,-0.40234375,6924.684,0.0,0.0,0.0,6925.009,-33.9375,-8.8125,13.1875
606,6934.714,10.16015625,-0.10546875,-0.31640625,6932.133000000001,0.0,0.0,0.0,6934.536999999999,-34.3125,-8.1875,14.0
607,6944.482,10.15234375,-0.125,-0.3828125,6942.294000000001,0.0,0.0,0.0,6944.591,-33.6875,-8.1875,13.125
608,6954.414,10.18359375,-0.06640625,-0.40234375,6952.14,0.0,0.0,0.0,6954.417,-34.0,-7.8125,11.25
609,6962.259,10.15625,-0.09765625,-0.3828125,6962.267,0.0,0.0,0.0,6962.244,-34.0,-7.8125,11.25
610,6982.041,10.15234375,-0.0859375,-0.35546875,6979.984,0.0,0.0,0.0,6982.047,-33.8125,-8.4375,11.8125
611,6994.778,10.19921875,-0.10546875,-0.32421875,6994.955,0.0,0.0,0.0,6994.799999999999,-33.625,-8.625,12.4375
612,7001.822,10.203125,-0.11328125,-0.35546875,6999.844,0.0,0.0,0.0,7001.829,-33.9375,-8.0,13.1875
613,7014.753,10.17578125,-0.078125,-0.3359375,7014.859,0.0,0.0,0.0,7015.112,-34.125,-8.0,12.625
614,7034.795,10.19140625,-0.05859375,-0.36328125,7034.748,0.0,0.0,0.0,7034.716,-34.1875,-8.5625,15.3125
615,7044.832,10.15625,-0.05859375,-0.3046875,7044.8550000000005,0.0,0.0,0.0,7044.91,-33.4375,-8.4375,13.0625
616,7054.871,10.16015625,-0.0859375,-0.3359375,7054.8330000000005,0.0,0.0,0.0,7054.847,-33.75,-8.625,11.125
617,7066.893999999999,10.1796875,-0.10546875,-0.32421875,7064.852,0.0,0.0,0.0,7066.963000000001,-33.6875,-8.4375,13.125
618,7082.514,10.1796875,-0.078125,-0.32421875,7082.403,0.0,0.0,0.0,7082.421,-34.5,-8.1875,14.0625
619,7094.756,10.18359375,-0.078125,-0.35546875,7092.23,0.0,0.0,0.0,7094.564,-33.3125,-8.875,11.625
620,7104.557,10.20703125,-0.0859375,-0.34375,7102.351,0.0,0.0,0.0,7104.583,-34.375,-8.0,12.6875
621,7114.39,10.18359375,-0.0859375,-0.3046875,7112.217000000001,0.0,0.0,0.0,7114.499000000001,-33.8125,-8.625,11.8125
622,7132.177000000001,10.15625,-0.09765625,-0.40234375,7129.74,0.0,0.0,0.0,7132.182000000001,-34.4375,-8.625,13.3125
623,7144.954000000001,10.15625,-0.125,-0.34375,7144.835,0.0,0.0,0.0,7144.902,-33.25,-8.875,11.0
624,7151.938,10.19140625,-0.078125,-0.3828125,7149.7339999999995,0.0,0.0,0.0,7152.049,-34.4375,-8.25,13.3125
625,7173.695000000001,10.18359375,-0.078125,-0.40234375,7172.332,0.0,0.0,0.0,7173.704,-33.625,-8.0,12.5
626,7184.793,10.1328125,-0.0859375,-0.3828125,7184.617,0.0,0.0,0.0,7184.688999999999,-33.8125,-8.0,14.5
627,7194.847000000001,10.15625,-0.02734375,-0.40234375,7194.670999999999,-0.00390625,0.03515625,-0.0078125,7195.108,-33.625,-8.8125,15.1875
628,7204.762,10.17578125,-0.06640625,-0.375,7204.887000000001,-0.001953125,0.03125,0.00390625,7204.9580000000005,-33.9375,-8.625,13.1875
629,7214.737,10.19140625,-0.10546875,-0.296875,7214.661999999999,-0.0078125,0.009765625,0.005859375,7214.889,-33.8125,-8.0,11.8125
630,7224.826,10.1796875,-0.06640625,-0.375,7224.75,0.0,0.009765625,0.01171875,7224.761,-33.875,-8.625,12.5
631,7234.848,10.17578125,-0.09765625,-0.31640625,7234.91,0.005859375,0.00390625,-0.009765625,7235.193,-34.6875,-8.625,13.375
632,7244.847,10.1875,-0.10546875,-0.32421875,7242.29,-0.001953125,-0.005859375,-0.0078125,7244.853,-33.3125,-8.4375,11.6875
633,7264.619,10.16015625,-0.09765625,-0.27734375,7262.282,-0.005859375,-0.00390625,-0.005859375,7264.528,-33.75,-8.25,11.125
634,7274.534,10.19921875,-0.11328125,-0.32421875,7272.33,0.00390625,0.009765625,0.001953125,7274.538,-33.25,-8.25,11.6875
635,7284.3,10.18359375,-0.05859375,-0.35546875,7282.304,0.005859375,-0.001953125,-0.0078125,7284.303000000001,-34.5,-8.625,14.0625
636,7294.17,10.1484375,-0.09765625,-0.27734375,7292.437,0.005859375,-0.009765625,0.009765625,7294.175,-33.0625,-8.1875,12.375
637,7304.045,10.14453125,-0.06640625,-0.296875,7302.3769999999995,0.0078125,-0.060546875,0.0078125,7304.156,-34.5,-8.5,11.3125
638,7314.071,10.2421875,-0.125,-0.5078125,7312.388,0.009765625,-0.083984375,0.017578125,7314.078,-33.625,-8.625,12.4375
639,7333.667,10.140625,-0.0859375,-0.296875,7332.272,-0.001953125,-0.017578125,-0.00390625,7333.474,-34.1875,-8.625,13.25
640,7342.616999999999,10.1875,-0.125,-0.3828125,7342.339,0.00390625,-0.021484375,0.00390625,7342.325,-33.4375,-9.125,10.3125
641,7352.585999999999,10.203125,-0.10546875,-0.35546875,7352.342000000001,-0.001953125,-0.013671875,0.00390625,7352.368,-34.375,-8.625,12.625
642,7361.512000000001,10.23828125,-0.078125,-0.3828125,7359.763,0.001953125,-0.01953125,-0.001953125,7361.3189999999995,-34.375,-8.625,12.625
643,7384.9,10.1796875,-0.10546875,-0.41015625,7384.861,-0.01171875,0.05078125,0.0,7384.83,-34.6875,-8.0,13.375
644,7394.978,10.203125,-0.10546875,-0.3828125,7392.228,-0.00390625,0.0234375,0.005859375,7394.983,-33.5625,-8.4375,11.75
645,7404.726000000001,10.15234375,-0.10546875,-0.32421875,7402.368,-0.009765625,0.013671875,0.00390625,7404.731,-33.875,-8.4375,12.5625
646,7414.6089999999995,10.19140625,-0.10546875,-0.31640625,7412.291,0.001953125,0.01171875,0.0,7414.731,-33.875,-8.625,12.5
647,7434.529,10.1953125,-0.078125,-0.35546875,7432.527999999999,0.00390625,0.001953125,-0.0078125,7434.531,-34.25,-8.25,11.25
648,7444.28,10.17578125,-0.06640625,-0.375,7442.266,-0.0078125,-0.015625,0.001953125,7444.283,-33.875,-8.25,12.5625
649,7454.178,10.23046875,-0.11328125,-0.296875,7452.395,0.013671875,0.0078125,0.001953125,7454.007,-33.5625,-8.25,11.75
650,7464.716,10.203125,-0.10546875,-0.3828125,7464.825,0.0,0.03125,-0.00390625,7464.921,-33.6875,-8.625,13.125
651,7471.433,10.21875,-0.0859375,-0.3359375,7469.83,-0.009765625,0.041015625,0.001953125,7471.438,-33.6875,-8.625,13.125
652,7484.8189999999995,10.12109375,-0.10546875,-0.34375,7484.928,0.0078125,0.017578125,0.0,7485.031,-33.375,-8.25,12.4375
653,7504.975,10.1484375,-0.10546875,-0.26953125,7504.996,-0.005859375,-0.046875,0.00390625,7504.967,-34.375,-8.25,12.6875
654,7514.8640000000005,10.33203125,-0.125,-0.5546875,7514.8859999999995,-0.005859375,-0.03515625,-0.001953125,7514.948,-34.125,-8.25,12.625
655,7524.918000000001,10.171875,-0.046875,-0.36328125,7524.938999999999,-0.017578125,-0.01171875,-0.00390625,7524.911,-33.4375,-8.625,13.0625
656,7534.96,10.15625,-0.09765625,-0.34375,7534.719,-0.009765625,-0.02734375,0.00390625,7534.744,-34.5,-8.6875,11.3125
657,7544.861,10.16015625,-0.05859375,-0.40234375,7544.823,0.0078125,-0.064453125,0.0078125,7545.147,-34.1875,-8.625,13.25
658,7554.984,10.15625,-0.0859375,-0.40234375,7552.392,-0.001953125,-0.078125,-0.00390625,7554.989,-34.8125,-8.0,14.75
659,7574.59,8.0703125,0.46875,-0.36328125,7572.229,-0.689453125,0.228515625,-0.0234375,7574.558,-33.875,-8.4375,12.5625
660,7584.293,9.94921875,0.2890625,-0.62109375,7582.33,-0.6953125,-0.025390625,0.013671875,7584.517,-34.0625,-8.0,11.875
661,7592.369,10.21875,0.3046875,-0.8046875,7589.995,-0.650390625,-0.0234375,0.013671875,7592.547,-34.3125,-8.625,14.0
662,7602.255999999999,10.28125,-0.21875,-0.46875,7600.005,-0.580078125,0.001953125,0.0078125,7602.061,-34.3125,-8.625,14.0
663,7622.029,10.1171875,-0.27734375,-0.296875,7620.026,-0.4921875,-0.013671875,0.001953125,7621.852,-33.9375,-8.0,13.1875
664,7632.474,10.3203125,-0.32421875,0.3828125,7632.664,-0.330078125,0.01171875,-0.001953125,7632.432,-34.0,-8.5,11.1875
665,7644.748,10.2421875,-0.21875,-0.21875,7644.853999999999,-0.265625,0.001953125,0.0078125,7644.932,-34.125,-8.4375,12.625
666,7652.477,10.35546875,-0.15234375,-0.3046875,7652.48,-0.287109375,0.0,0.015625,7652.482,-35.0625,-8.4375,14.1875
667,7661.475,10.3125,-0.06640625,-0.34375,7659.964000000001,-0.30078125,-0.005859375,0.013671875,7661.5830000000005,-35.0625,-8.4375,14.1875
668,7687.124,10.1171875,-0.0078125,-0.2109375,7684.915,-0.447265625,0.013671875,0.009765625,7687.128000000001,-34.375,-9.0625,12.625
669,7697.031,10.1171875,-0.046875,-0.48046875,7695.025000000001,-0.439453125,-0.0234375,0.0078125,7697.037,-33.8125,-9.0625,11.75
670,7702.781,9.984375,-0.02734375,-0.44921875,7702.503,-0.458984375,0.02734375,0.013671875,7702.487,-34.0625,-8.4375,11.875
671,7722.437,10.2734375,0.0859375,-0.4609375,7722.446,-0.390625,0.015625,-0.001953125,7722.6140000000005,-33.9375,-8.6875,10.4375
672,7734.518999999999,10.2578125,-0.31640625,-0.01953125,7732.318,-0.3125,-0.017578125,0.009765625,7734.6269999999995,-33.875,-8.4375,12.5625
673,7744.633000000001,10.19140625,-0.1328125,-0.078125,7742.546,-0.251953125,0.0078125,-0.0078125,7744.744,-33.1875,-9.0625,10.25
674,7754.3150000000005,10.1875,-0.1640625,-0.36328125,7752.559,-0.22265625,0.009765625,0.00390625,7754.423,-34.4375,-8.6875,10.5625
675,7762.504,10.20703125,-0.1328125,-0.27734375,7762.409,-0.169921875,0.001953125,0.01171875,7762.481,-34.5625,-8.875,11.9375
676,7781.983,10.23828125,0.06640625,-0.40234375,7780.019,-0.23046875,0.001953125,0.0,7781.986,-33.9375,-8.5,10.4375
677,7793.85,10.1328125,0.09765625,-0.2109375,7792.486,-0.34375,0.01953125,-0.0078125,7793.857,-33.625,-9.125,9.75
678,7801.769,10.0,0.078125,-0.5859375,7800.055,-0.41015625,0.005859375,0.015625,7801.776,-34.8125,-8.6875,12.0
679,7814.932,10.09765625,-0.05859375,-0.35546875,7814.856,-0.3828125,-0.009765625,0.01171875,7814.929,-34.0,-8.625,11.1875
680,7837.387,10.1171875,-0.0390625,-0.5078125,7834.894,-0.37890625,0.013671875,0.005859375,7837.193,-34.125,-9.75,9.8125
681,7847.164000000001,10.13671875,-0.05859375,-0.44921875,7844.959,-0.390625,0.033203125,0.01953125,7847.169,-33.375,-9.3125,9.625
682,7852.448,10.140625,0.0859375,-0.546875,7852.348,-0.3984375,-0.005859375,-0.00390625,7852.4580000000005,-34.3125,-8.625,11.875
683,7862.634,10.203125,0.0390625,-0.3828125,7862.594,-0.47265625,0.021484375,0.013671875,7862.596,-34.125,-8.875,9.875
684,7884.772,10.26171875,-0.125,-0.4296875,7882.568,-0.66015625,0.025390625,0.015625,7884.58,-33.8125,-9.125,9.0625
685,7894.575,10.1484375,-0.19921875,-0.19921875,7892.366,-0.703125,0.0703125,0.013671875,7894.583,-33.6875,-9.5625,10.375
686,7902.347,10.30078125,-0.15234375,-0.10546875,7902.369000000001,-0.76953125,0.123046875,0.01171875,7902.534000000001,-33.6875,-9.5625,10.375
687,7914.248,10.14453125,0.21875,-0.515625,7912.415,-0.890625,0.265625,0.0078125,7914.357,-34.0,-9.125,9.125
688,7922.218,10.14453125,0.46875,-0.91015625,7920.098999999999,-0.966796875,0.244140625,0.015625,7922.223,-34.0,-9.125,9.125
689,7932.496999999999,10.19140625,0.40234375,-0.59375,7932.4310000000005,-1.1171875,0.287109375,0.021484375,7932.503,-32.9375,-9.3125,8.1875
690,7942.624000000001,10.12109375,0.23046875,-0.515625,7942.4580000000005,-1.267578125,0.408203125,-0.013671875,7942.684,-34.125,-9.5,11.8125
691,7962.468000000001,10.36328125,-0.18359375,-0.06640625,7962.545,-1.369140625,0.501953125,-0.00390625,7962.589,-33.375,-9.5625,6.9375
692,7974.977,10.30859375,-0.18359375,-0.40234375,7974.997,-1.38671875,0.47265625,-0.015625,7975.241999999999,-33.4375,-10.25,4.8125
693,7982.556,10.19140625,-0.36328125,-0.11328125,7982.557,-1.3828125,0.45703125,-0.02734375,7982.365,-33.875,-10.0,7.6875
694,7992.539,10.53515625,-0.19921875,-0.0859375,7992.644,-1.33203125,0.392578125,-0.033203125,7992.538,-33.875,-10.0,7.6875
695,8004.878,10.13671875,-0.2578125,1.54296875,8005.001,-1.154296875,0.35546875,-0.029296875,8005.058,-33.8125,-10.0625,4.3125
696,8027.580999999999,10.0234375,-0.2578125,0.4296875,8027.5,-0.98828125,0.19921875,-0.0390625,8027.509999999999,-32.9375,-11.3125,2.6875
697,8034.881,10.31640625,-0.40234375,0.52734375,8032.3820000000005,-0.908203125,0.126953125,-0.025390625,8034.793000000001,-34.0,-10.5,3.625
698,8044.637,10.01953125,-0.44140625,0.15234375,8042.448,-0.802734375,0.24609375,-0.033203125,8044.706,-33.375,-10.9375,2.0625
699,8054.693,10.18359375,-0.62109375,0.5546875,8052.557999999999,-0.591796875,0.109375,-0.021484375,8054.499,-33.5,-10.3125,0.75
700,8062.5470000000005,10.1796875,-0.546875,0.48828125,8060.152999999999,-0.423828125,0.068359375,-0.015625,8062.3550000000005,-33.5,-10.3125,0.75
701,8082.2339999999995,10.13671875,-0.2109375,0.1328125,8080.065,-0.263671875,0.07421875,-0.015625,8082.312,-33.375,-11.0,-0.625
702,8092.065,10.15625,-0.171875,0.046875,8090.026,-0.291015625,0.078125,-0.013671875,8092.069,-32.875,-10.6875,1.9375
703,8102.549,10.2265625,-0.14453125,-0.078125,8102.567000000001,-0.431640625,0.205078125,-0.009765625,8102.478,-34.125,-11.375,1.625
704,8111.839,10.1875,-0.31640625,-0.2578125,8110.192,-0.54296875,0.30859375,-0.021484375,8111.845,-32.5625,-10.6875,1.25
705,8125.102,10.3984375,-0.4296875,0.1328125,8125.109,-0.66796875,0.408203125,-0.015625,8125.014999999999,-32.8125,-11.5625,1.25
706,8132.638999999999,10.28125,-0.44921875,-0.546875,8132.561000000001,-0.701171875,0.345703125,-0.015625,8132.649,-32.25,-10.5625,-1.5
707,8152.892,9.96484375,-0.46875,-0.48046875,8152.4169999999995,-0.8203125,0.275390625,-0.037109375,8152.601000000001,-33.0,-10.375,-4.0625
708,8165.050000000001,10.1484375,-0.39453125,-0.8125,8165.055,-0.88671875,0.091796875,-0.056640625,8165.156,-32.3125,-10.5625,-3.625
709,8175.094,10.1484375,-0.3046875,-0.515625,8174.999,-0.974609375,0.01171875,-0.05859375,8175.053999999999,-33.0,-11.0625,-4.0625
710,8192.519,10.49609375,-0.0390625,0.46875,8192.447,-1.123046875,-0.08203125,-0.068359375,8192.527,-32.0625,-10.8125,-3.6875
711,8204.779999999999,9.38671875,-0.19921875,0.01953125,8202.616,-1.140625,-0.078125,-0.07421875,8204.692,-31.9375,-11.0,-5.0625
712,8214.688,9.92578125,-0.48046875,-0.25,8212.578000000001,-1.119140625,-0.08203125,-0.076171875,8214.555,-30.9375,-11.4375,-5.3125
713,8222.472,9.71875,-0.52734375,0.18359375,8220.072,-1.171875,-0.185546875,-0.0625,8222.416000000001,-31.125,-11.25,-8.0
714,8242.376999999999,9.4765625,-0.15234375,0.98828125,8240.021,-1.1171875,-0.126953125,-0.05859375,8242.204,-30.3125,-11.0625,-8.9375
715,8257.476,10.453125,-0.32421875,0.375,8257.501,-0.931640625,-0.220703125,-0.0625,8257.572,-31.125,-10.0,-7.3125
716,8267.55,9.625,-0.19921875,0.86328125,8267.51,-0.826171875,-0.25,-0.03515625,8267.535,-30.0625,-10.625,-8.25
717,8275.089,10.40234375,0.0078125,0.95703125,8275.096,-0.78125,-0.3125,-0.03125,8274.964,-29.375,-11.25,-10.5
718,8285.059000000001,9.62890625,0.296875,1.0546875,8285.083999999999,-0.701171875,-0.34375,-0.03515625,8285.109,-30.125,-10.625,-10.3125
719,8294.928,10.3125,-0.02734375,0.3359375,8294.937,-0.6953125,-0.359375,-0.029296875,8295.059,-29.4375,-11.0625,-9.75
720,8315.397,9.96875,0.078125,0.34375,8315.259,-0.646484375,-0.115234375,-0.021484375,8315.103000000001,-29.8125,-11.25,-11.0625
721,8325.072,9.7734375,-0.05859375,-0.21875,8324.992999999999,-0.703125,-0.15625,-0.02734375,8325.048999999999,-29.0625,-10.375,-11.1875
722,8335.108,9.859375,-0.48046875,0.23046875,8332.546,-0.767578125,-0.28515625,-0.02734375,8335.112000000001,-29.5,-11.25,-11.875
723,8354.749,9.90234375,0.11328125,-0.8515625,8352.430999999999,-0.95703125,-0.740234375,-0.01171875,8354.775,-29.4375,-10.1875,-9.75
724,8364.46,10.21875,0.02734375,-0.96875,8362.59,-1.099609375,-0.87890625,-0.005859375,8364.682,-28.5,-10.875,-14.0625
725,8372.595000000001,10.7421875,0.171875,-1.703125,8370.093,-1.236328125,-0.927734375,0.0,8372.602,-28.5,-10.875,-14.0625
726,8384.387999999999,12.26953125,0.44921875,-1.29296875,8382.395,-1.501953125,-0.96484375,0.033203125,8384.411,-29.0625,-10.125,-8.4375
727,8402.736,10.34375,-0.31640625,0.39453125,8402.656,-1.818359375,-0.330078125,0.064453125,8402.678,-28.5,-9.75,-11.3125
728,8412.046999999999,10.1171875,-0.3359375,1.12890625,8409.989,-1.658203125,-0.22265625,0.03125,8412.052,-28.3125,-10.0,-10.6875
729,8427.651,10.09375,-0.0859375,1.4375,8427.456,-1.21875,-0.205078125,0.041015625,8427.564,-28.8125,-10.1875,-11.25
730,8437.597,10.296875,-0.0859375,1.28515625,8437.603,-0.923828125,-0.138671875,0.02734375,8437.783,-28.6875,-10.0,-12.0
731,8445.083,10.109375,-0.14453125,1.08203125,8445.205,-0.69140625,-0.078125,0.033203125,8445.267,-28.0,-9.5625,-11.375
732,8475.186000000002,10.171875,-0.09765625,0.39453125,8475.109,-0.013671875,0.28515625,0.001953125,8475.163999999999,-27.9375,-10.0,-12.1875
733,8482.687,10.1796875,-0.11328125,-0.421875,8482.637999999999,-0.01171875,0.23046875,0.001953125,8482.590999999999,-27.375,-9.3125,-12.9375
734,8494.899,10.1953125,-0.125,-0.515625,8492.616,-0.013671875,0.052734375,0.0,8494.971,-27.4375,-9.8125,-14.25
735,8504.758,10.15234375,-0.1328125,-0.3046875,8502.528,0.0078125,0.025390625,-0.009765625,8504.829000000002,-28.0,-9.3125,-11.375
736,8522.666,10.18359375,-0.15234375,-0.94921875,8522.488,-0.10546875,-0.037109375,0.017578125,8522.651,-27.6875,-9.375,-14.1875
737,8534.395999999999,10.19140625,-0.125,-0.77734375,8532.568,-0.1484375,0.01953125,0.0078125,8534.507,-28.6875,-9.375,-11.9375
738,8542.403,10.15625,-0.171875,-1.41796875,8540.162,-0.228515625,-0.015625,0.001953125,8542.408,-28.5625,-9.5625,-13.375
739,8552.255000000001,10.11328125,-0.171875,-1.2265625,8549.956999999999,-0.38671875,-0.0390625,0.005859375,8552.265,-28.5625,-9.5625,-13.375
740,8574.034,10.1875,0.171875,-0.1328125,8572.563,-0.6953125,-0.294921875,0.02734375,8574.036,-27.125,-10.0625,-15.75
741,8582.59,10.1328125,0.5546875,-0.70703125,8582.668,-0.83984375,-0.26953125,0.025390625,8582.807,-27.5,-9.5625,-13.625
742,8592.703,10.14453125,0.02734375,-0.8046875,8592.606,-1.16796875,-0.046875,0.02734375,8592.599,-27.375,-9.375,-15.0
743,8605.140000000001,10.203125,-0.4296875,-0.36328125,8605.164,-1.435546875,0.306640625,0.025390625,8605.167,-27.875,-9.375,-12.8125
744,8622.8,10.171875,-0.5859375,0.83203125,8622.526,-1.130859375,0.267578125,0.00390625,8622.509,-26.875,-9.1875,-17.8125
745,8637.250999999998,10.51953125,-0.14453125,0.9375,8635.241,-0.365234375,-0.0078125,0.01953125,8637.259,-27.625,-8.3125,-14.875
746,8645.042,10.23046875,-0.1328125,0.61328125,8642.573,-0.2890625,0.005859375,0.001953125,8645.113,-26.9375,-8.9375,-14.375
747,8654.930999999999,10.14453125,-0.1328125,0.26953125,8652.582,-0.15625,0.0390625,0.00390625,8654.94,-26.4375,-8.125,-16.5
748,8664.821,10.18359375,-0.1328125,-0.36328125,8662.708,-0.080078125,0.0234375,-0.00390625,8664.825,-27.3125,-8.5625,-15.625
749,8672.517,10.12109375,-0.14453125,-0.77734375,8672.523,-0.1015625,-0.001953125,0.00390625,8672.774000000001,-27.3125,-8.5625,-15.625
750,8684.499,10.2265625,-0.06640625,-0.6015625,8682.657000000001,-0.19140625,-0.009765625,0.001953125,8684.611,-26.75,-8.9375,-16.5
751,8692.492,10.26171875,0.296875,-0.71875,8690.201000000001,-0.2265625,0.015625,0.00390625,8692.519,-26.9375,-8.75,-17.0625
752,8702.309,10.0078125,0.046875,-1.3203125,8700.224,-0.359375,0.0234375,-0.0078125,8702.42,-27.75,-8.5625,-16.25
753,8712.67,10.3515625,-0.10546875,-0.70703125,8712.693,-0.53515625,-0.0078125,0.013671875,8712.502,-27.3125,-8.9375,-15.625
754,8722.753,10.28515625,-0.49609375,-1.88671875,8722.583,-0.763671875,-0.07421875,0.021484375,8722.809,-26.9375,-8.75,-17.0625
755,8733.981,10.0078125,-0.19140625,-2.453125,8732.525000000001,-0.978515625,0.044921875,0.013671875,8733.985999999999,-26.4375,-8.5625,-16.5625
756,8755.125,9.8828125,-0.171875,-1.24609375,8755.149,-1.326171875,-0.037109375,0.03125,8755.242,-26.6875,-8.125,-17.125
757,8767.49,10.17578125,0.14453125,0.2890625,8765.282,-1.416015625,0.046875,0.015625,8767.601,-26.375,-8.375,-19.875
758,8777.483,10.2578125,-0.1328125,-0.49609375,8775.064,-1.392578125,0.083984375,0.015625,8777.397,-26.75,-8.625,-21.1875
759,8795.202,10.3515625,0.078125,0.25,8795.210000000001,-1.306640625,0.013671875,0.01953125,8795.227,-26.0,-8.0625,-15.875
760,8802.626,10.15625,-0.21875,0.296875,8802.631,-1.20703125,0.03515625,0.017578125,8802.74,-26.0,-8.0625,-15.875
761,8812.705,10.6484375,-0.27734375,0.48046875,8812.542000000001,-1.208984375,0.033203125,0.015625,8812.614,-25.375,-7.5625,-22.1875
762,8824.819,10.44140625,-0.19140625,0.0859375,8822.631,-1.16015625,-0.119140625,0.033203125,8824.93,-26.375,-7.6875,-19.875
763,8832.806,9.8359375,-0.2578125,-1.015625,8830.687,-1.189453125,-0.013671875,0.021484375,8832.734999999999,-26.4375,-7.3125,-19.1875
764,8854.488,9.8515625,-0.4296875,-1.0234375,8852.638,-1.14453125,0.109375,0.0078125,8854.637,-25.25,-7.0625,-20.875
765,8862.499,10.0078125,-0.0390625,-0.19921875,8860.125,-1.15234375,0.201171875,0.01171875,8862.506,-25.125,-6.625,-21.5
766,8872.263,9.01953125,-0.078125,-1.109375,8870.166,-1.12890625,0.103515625,0.017578125,8872.354,-25.0625,-6.875,-22.25
767,8884.026,10.3515625,-0.171875,0.171875,8882.831,-1.10546875,-0.017578125,0.015625,8884.029999999999,-24.6875,-6.4375,-21.5625
768,8892.16,10.01171875,-0.046875,0.171875,8890.2,-1.111328125,0.05859375,0.013671875,8891.969,-25.0625,-6.4375,-22.1875
769,8917.628999999999,9.86328125,-0.69921875,0.14453125,8915.151,-0.857421875,0.013671875,0.0078125,8917.635,-25.1875,-6.0,-20.8125
770,8927.616,10.4296875,-0.21875,0.06640625,8925.255,-0.748046875,0.001953125,0.00390625,8927.684,-25.0,-6.6875,-22.875
771,8935.25,10.20703125,-0.36328125,-0.71875,8935.012999999999,-0.755859375,0.0234375,0.009765625,8935.038999999999,-25.25,-5.8125,-20.0625
772,8955.199999999999,10.6484375,-0.35546875,0.49609375,8952.645999999999,-0.662109375,-0.056640625,0.01953125,8955.206,-25.9375,-5.375,-21.25
773,8962.748,10.390625,-0.27734375,0.34375,8962.81,-0.609375,-0.015625,0.0078125,8962.723,-24.4375,-5.8125,-21.0
774,8974.959,10.4296875,-0.10546875,0.66015625,8972.571,-0.529296875,-0.01171875,0.005859375,8975.107,-24.0625,-6.25,-22.4375
775,8984.806,10.08984375,0.0,-0.5859375,8982.669,-0.48828125,0.00390625,0.017578125,8984.930999999999,-24.5625,-5.5625,-22.3125
776,8994.600999999999,9.86328125,0.15234375,-0.8125,8992.794,-0.58984375,0.0625,0.001953125,8994.607,-24.25,-5.5625,-20.3125
777,9002.539999999999,10.109375,0.1328125,-1.0234375,9000.367,-0.65625,0.0390625,0.013671875,9002.652,-24.375,-6.0,-21.625
778,9022.559,10.38671875,-0.48046875,-0.73828125,9022.675,-1.005859375,-0.0234375,0.0390625,9022.544,-24.25,-5.8125,-23.0
779,9032.037,10.62109375,-0.57421875,-0.48828125,9030.234,-1.04296875,-0.0703125,0.015625,9032.045999999998,-23.8125,-5.375,-24.4375
780,9042.090999999999,9.70703125,-0.15234375,-0.62109375,9040.298,-1.029296875,0.00390625,0.017578125,9042.095,-23.25,-4.75,-23.1875
781,9052.643,9.86328125,-0.2109375,-0.02734375,9052.566,-1.015625,-0.03125,0.00390625,9052.744,-24.75,-5.0,-22.875
782,9073.145,9.60546875,-0.0078125,-0.84375,9072.768999999998,-1.048828125,-0.03515625,0.0234375,9072.770999999999,-23.625,-5.5625,-21.8125
783,9085.223,9.76953125,-0.5078125,-0.84375,9085.249,-1.09765625,-0.04296875,0.021484375,9085.217999999999,-24.0625,-5.125,-22.4375
784,9095.292000000001,10.19140625,-0.35546875,-0.94921875,9095.217999999999,-1.23828125,-0.044921875,0.033203125,9095.271999999999,-23.0,-4.75,-25.25
785,9103.106,10.65625,-0.23828125,-0.3828125,9102.84,-1.330078125,0.119140625,0.01171875,9102.811000000002,-23.4375,-4.0625,-23.125
786,9125.24,10.10546875,-0.27734375,-0.296875,9122.664,-1.21484375,-0.009765625,0.0234375,9125.049,-23.375,-4.3125,-23.875
787,9140.839,10.62890625,-0.44921875,0.23046875,9140.211000000001,-1.134765625,0.0234375,0.01953125,9140.798,-23.6875,-4.0625,-23.0625
788,9152.789,9.984375,-0.18359375,-0.4296875,9150.187,-1.111328125,-0.052734375,0.025390625,9152.86,-22.25,-3.6875,-24.75
789,9162.538,10.0859375,-0.23828125,0.421875,9160.389000000001,-1.037109375,0.021484375,0.021484375,9162.449999999999,-22.375,-3.25,-23.375
790,9182.736,10.08984375,-0.1328125,0.52734375,9182.769,-0.83203125,0.046875,0.001953125,9182.938,-22.9375,-3.25,-23.25
791,9192.237000000001,10.14453125,-0.0859375,0.23046875,9190.249,-0.716796875,0.05078125,0.005859375,9192.071,-22.4375,-3.6875,-23.375
792,9204.065999999999,10.23046875,-0.11328125,0.4609375,9202.848,-0.587890625,0.025390625,0.0,9204.072,-22.5,-2.75,-21.9375
793,9211.949,10.55859375,-0.06640625,1.4921875,9210.302,-0.52734375,-0.01953125,0.009765625,9211.957999999999,-22.4375,-3.0,-22.6875
794,9222.821,10.14453125,0.0390625,0.9765625,9222.676,-0.236328125,0.021484375,0.00390625,9222.803,-22.5625,-3.0,-21.9375
795,9235.203,10.13671875,-0.0390625,-0.15234375,9235.227,-0.1328125,0.015625,0.005859375,9235.353,-22.9375,-2.8125,-23.1875
796,9245.185,10.15625,0.14453125,-1.40625,9245.189999999999,-0.17578125,0.05859375,-0.009765625,9245.358,-21.5,-2.1875,-24.875
797,9252.777,10.0859375,0.65234375,-1.97265625,9252.745,-0.31640625,0.025390625,0.0078125,9252.698,-21.9375,-2.75,-22.8125
798,9275.048999999999,10.3671875,-0.69921875,-0.765625,9272.702000000001,-0.787109375,0.005859375,0.0234375,9275.057999999999,-22.3125,-1.9375,-24.0625
799,9285.097,10.234375,-0.48046875,-1.24609375,9282.7,-0.970703125,0.005859375,0.01953125,9284.901,-22.375,-2.5625,-23.3125
800,9292.635,10.19921875,-0.53515625,-0.71875,9292.643999999998,-1.08203125,0.0234375,0.025390625,9292.621000000001,-22.375,-2.5625,-23.3125
801,9304.688,10.37109375,-0.6328125,1.0234375,9302.718,-0.98828125,0.029296875,0.025390625,9304.8,-20.9375,-2.125,-23.0625
802,9312.658000000001,10.70703125,-0.3046875,0.70703125,9310.318000000001,-0.89453125,0.009765625,0.021484375,9312.664,-21.75,-1.5,-22.0625
803,9332.43,10.19140625,-0.83203125,-0.8125,9330.238,-0.734375,-0.01953125,0.005859375,9332.505,-21.5,-1.9375,-22.125
804,9342.26,9.69140625,0.26953125,0.0,9340.394,-0.806640625,0.001953125,0.005859375,9342.271999999999,-21.0625,-1.6875,-21.625
805,9352.684,10.296875,0.2578125,-0.56640625,9352.874,-0.81640625,-0.095703125,0.017578125,9352.619,-21.5625,-1.25,-21.5
806,9362.077,10.64453125,0.01953125,-0.0390625,9360.305,-0.8359375,-0.037109375,0.017578125,9362.086,-20.9375,-1.0625,-22.25
807,9387.698,10.28515625,-0.14453125,-0.1328125,9385.188,-0.96484375,0.009765625,0.021484375,9387.706,-21.0,-1.25,-21.625
808,9395.218,10.65234375,-0.23828125,0.6328125,9395.224,-0.908203125,0.05859375,0.00390625,9395.296999999999,-20.4375,-1.4375,-22.375
809,9405.251,10.5234375,-0.19921875,0.77734375,9405.170999999998,-0.8203125,0.013671875,0.015625,9405.545999999998,-20.625,-0.375,-20.3125
810,9423.019,10.18359375,-1.30078125,0.18359375,9422.854,-0.669921875,0.009765625,0.005859375,9422.783000000001,-20.875,-1.0,-20.25
811,9435.140000000001,10.12109375,0.31640625,0.44921875,9432.682,-0.54296875,0.015625,0.0078125,9435.162999999999,-20.8125,-0.1875,-20.875
812,9444.934,10.36328125,0.375,0.25,9442.771999999999,-0.435546875,-0.0234375,0.001953125,9445.002,-20.375,-0.5625,-21.0
813,9454.911,10.31640625,0.078125,0.23046875,9452.923999999999,-0.380859375,-0.162109375,0.017578125,9454.92,-20.4375,-0.5625,-20.375
814,9474.546,10.2421875,-0.1640625,0.66015625,9472.82,-0.138671875,0.048828125,-0.00390625,9474.657000000001,-20.25,-0.125,-19.0625
815,9482.507,10.23828125,-0.125,0.21875,9480.425000000001,-0.041015625,0.056640625,0.005859375,9482.51,-20.0,-0.75,-19.125
816,9492.466,10.23046875,-0.14453125,-0.46875,9490.166000000001,-0.009765625,0.119140625,-0.01171875,9492.363,-20.1875,-0.125,-19.6875
817,9502.783000000001,10.26953125,-0.15234375,-0.5546875,9502.815999999999,0.00390625,0.076171875,-0.00390625,9502.758,-20.625,-0.125,-20.3125
818,9512.831,10.15625,-0.05859375,-0.5546875,9512.973,-0.00390625,0.0390625,-0.00390625,9512.766,-20.1875,0.0625,-19.6875
819,9531.936,10.15234375,0.31640625,-0.8125,9530.373000000001,-0.10546875,0.033203125,-0.00390625,9532.045999999998,-20.125,0.0625,-20.4375
820,9542.823999999999,10.08984375,0.296875,-2.34765625,9542.825,-0.27734375,-0.05078125,0.021484375,9542.833,-20.0625,-0.125,-21.0625
821,9555.391,9.81640625,0.11328125,-1.25390625,9555.204,-0.5859375,-0.044921875,0.0078125,9555.157,-20.1875,0.0625,-19.6875
822,9565.24,10.28125,-0.19921875,0.53515625,9565.363,-0.662109375,-0.0234375,0.017578125,9565.485,-20.5,-0.5625,-19.625
823,9585.262999999999,10.0,-0.890625,0.8515625,9582.819000000001,-0.52734375,0.07421875,0.0078125,9585.268,-19.8125,0.125,-18.375
824,9595.088,10.20703125,-0.18359375,1.87890625,9592.724,-0.318359375,0.076171875,0.005859375,9595.094,-19.6875,0.125,-19.8125
825,9605.113,10.20703125,-0.23828125,0.546875,9602.905,-0.0546875,0.009765625,0.005859375,9604.920999999998,-19.875,0.5,-20.4375
826,9614.824,10.26171875,-0.19140625,-0.40234375,9612.880000000001,-0.00390625,0.00390625,-0.005859375,9614.931999999999,-19.4375,-0.3125,-17.875
827,9624.682,10.203125,-0.2109375,-0.35546875,9622.842,0.0,-0.001953125,-0.00390625,9624.792,-19.4375,-0.125,-19.875
828,9632.633,10.19140625,-0.171875,-0.41015625,9630.201,-0.00390625,-0.0078125,0.0,9632.637,-19.875,0.25,-20.5
829,9652.82,10.15625,-0.09765625,-0.35546875,9652.841,-0.00390625,-0.013671875,0.005859375,9652.87,-20.5,-0.125,-19.625
830,9662.957,10.1953125,-0.06640625,-0.31640625,9662.794,-0.00390625,-0.03515625,0.001953125,9662.942,-19.1875,0.0625,-19.9375
831,9672.228000000001,10.1328125,-0.0390625,-0.39453125,9670.432,-0.005859375,-0.046875,-0.001953125,9672.271,-19.375,0.125,-17.875
832,9683.096000000001,10.17578125,-0.078125,-0.48046875,9682.82,0.00390625,-0.046875,-0.0078125,9682.807999999999,-18.625,0.3125,-20.8125
833,9695.325,10.14453125,-0.14453125,-0.48046875,9695.379,0.00390625,-0.01953125,-0.00390625,9695.209,-19.625,0.25,-20.5625
834,9712.93,10.16015625,-0.14453125,-0.5078125,9712.865000000002,-0.005859375,0.06640625,-0.0078125,9712.939,-19.5625,-0.0625,-18.5
835,9727.439,10.2421875,-0.21875,-0.44140625,9725.408,-0.001953125,0.015625,-0.005859375,9727.444,-19.5625,0.0625,-18.5
836,9735.41,10.234375,-0.171875,-0.34375,9735.337,0.005859375,0.015625,0.009765625,9735.621,-19.3125,0.3125,-20.625
837,9745.277,10.22265625,-0.19921875,-0.39453125,9742.918,0.013671875,0.015625,-0.01171875,9745.222,-19.4375,-0.3125,-17.875
838,9755.229,10.24609375,-0.21875,-0.36328125,9752.807,-0.001953125,0.00390625,-0.00390625,9755.033,-19.4375,0.125,-19.875
839,9765.140000000001,10.19140625,-0.21875,-0.41015625,9762.755000000001,-0.005859375,0.005859375,-0.00390625,9764.948,-20.3125,0.5,-18.25
840,9784.856,10.23828125,-0.171875,-0.375,9782.814999999999,0.00390625,0.0,0.001953125,9784.765,-20.0,-0.125,-19.125
841,9792.775000000001,10.16015625,-0.14453125,-0.32421875,9790.247000000001,0.005859375,0.00390625,-0.017578125,9792.68,-19.1875,0.3125,-19.9375
842,9802.508,10.14453125,-0.1328125,-0.36328125,9800.528,0.001953125,0.001953125,0.005859375,9802.619999999999,-19.75,-0.3125,-19.1875
843,9822.989,10.1328125,-0.0859375,-0.3828125,9822.821,-0.00390625,0.00390625,-0.00390625,9822.95,-19.4375,-0.3125,-19.875
844,9832.331,10.16015625,-0.06640625,-0.4296875,9830.473,-0.001953125,0.00390625,0.0,9832.136999999999,-19.875,0.3125,-17.75
845,9842.853,10.1015625,-0.10546875,-0.40234375,9842.97,-0.001953125,-0.009765625,-0.005859375,9842.759,-19.5625,0.3125,-18.4375
846,9853.092,10.15625,-0.125,-0.44921875,9852.841,0.00390625,-0.005859375,0.00390625,9852.867,-19.875,0.0625,-20.5
847,9875.439999999999,10.15234375,-0.14453125,-0.44921875,9875.365,0.0078125,0.009765625,0.017578125,9875.437,-19.625,-0.375,-20.5625
848,9882.930999999999,10.1796875,-0.19140625,-0.44921875,9882.868,0.005859375,0.0,0.00390625,9882.94,-19.875,-0.125,-20.5
849,9892.785,10.203125,-0.19140625,-0.41015625,9892.789999999999,-0.0078125,0.005859375,-0.005859375,9892.896999999999,-19.875,-0.125,-20.5
850,9905.214,10.1953125,-0.19140625,-0.375,9902.948,-0.001953125,0.009765625,0.00390625,9905.219000000001,-20.3125,0.5,-18.25
851,9924.823999999999,10.20703125,-0.19921875,-0.3359375,9922.803,0.001953125,0.0,0.0078125,9924.952,-20.125,0.25,-20.4375
852,9934.785,10.22265625,-0.1640625,-0.34375,9932.866,-0.001953125,-0.005859375,0.0,9934.693,-20.0625,0.125,-18.3125
853,9944.541,10.17578125,-0.14453125,-0.3828125,9942.791,-0.005859375,0.005859375,-0.0078125,9944.686000000002,-19.3125,0.75,-20.5625
854,9952.626,10.1796875,-0.11328125,-0.421875,9950.412999999999,-0.005859375,0.0,-0.001953125,9952.629,-20.0,-0.125,-19.125
855,9972.359,10.14453125,-0.09765625,-0.3046875,9970.618999999999,-0.001953125,0.0,0.001953125,9972.365,-19.6875,0.125,-19.8125
856,9982.277,10.171875,-0.078125,-0.40234375,9980.482,-0.0078125,-0.00390625,-0.013671875,9982.281,-19.75,-0.3125,-19.1875
857,9992.841999999999,10.10546875,-0.05859375,-0.375,9992.92,0.00390625,-0.00390625,-0.001953125,9992.85,-19.4375,0.9375,-19.1875
858,10002.884,10.12109375,-0.125,-0.421875,10002.989,0.001953125,-0.0078125,0.00390625,10003.041,-19.9375,0.3125,-19.75
859,10013.265000000001,10.15234375,-0.10546875,-0.41015625,10012.897,-0.001953125,0.00390625,0.0078125,10012.872,-19.5,-0.125,-19.25
860,10032.909,10.15234375,-0.19140625,-0.36328125,10032.947999999999,-0.00390625,0.005859375,0.009765625,10033.002,-19.9375,-0.3125,-19.75
861,10042.975999999999,10.1875,-0.1328125,-0.39453125,10043.013,0.00390625,0.001953125,0.0078125,10043.282,-19.75,0.3125,-19.125
862,10055.153,10.2578125,-0.14453125,-0.375,10052.927,0.001953125,0.0078125,0.001953125,10055.175000000001,-19.9375,0.75,-19.6875
863,10065.213,10.1484375,-0.19140625,-0.44140625,10062.925,0.009765625,0.015625,0.013671875,10065.018,-20.0625,0.75,-18.3125
864,10074.934000000001,10.19140625,-0.18359375,-0.41015625,10072.810000000001,-0.005859375,0.001953125,-0.00390625,10075.003,-19.5,-0.0625,-17.125
865,10092.934,10.1796875,-0.1640625,-0.35546875,10093.043,-0.001953125,0.0,0.0078125,10092.965,-19.25,0.3125,-19.25
866,10103.109,10.1796875,-0.1640625,-0.34375,10102.842,0.005859375,-0.005859375,-0.001953125,10102.911,-19.75,-0.125,-19.1875
867,10112.964,10.17578125,-0.1640625,-0.34375,10112.983,0.001953125,0.0,0.0078125,10112.909,-19.625,-0.375,-20.5625
868,10123.096,10.12109375,-0.1328125,-0.40234375,10123.014,-0.005859375,-0.009765625,0.005859375,10122.926,-19.0625,0.125,-21.3125
869,10142.919,10.171875,-0.171875,-0.421875,10142.981000000002,-0.001953125,-0.001953125,0.001953125,10143.031,-20.375,-0.5625,-18.3125
870,10153.001,10.15625,-0.10546875,-0.44140625,10153.017,0.0,-0.005859375,-0.001953125,10153.007000000001,-20.0625,0.6875,-21.0625
871,10163.057,10.19140625,-0.14453125,-0.39453125,10162.916,0.00390625,0.009765625,0.0078125,10162.864000000001,-20.0,0.125,-19.0625
872,10177.813,10.13671875,-0.1328125,-0.40234375,10175.254,0.001953125,0.001953125,-0.001953125,10177.621000000001,-20.25,0.125,-19.0
873,10182.929,10.171875,-0.06640625,-0.35546875,10182.893,-0.005859375,-0.001953125,-0.00390625,10182.938999999998,-19.8125,0.125,-18.375
874,10203.110999999999,10.19140625,-0.18359375,-0.44140625,10203.072,0.001953125,-0.005859375,0.005859375,10203.077000000001,-19.6875,0.5,-19.75
875,10213.277,10.1875,-0.1640625,-0.40234375,10213.056,0.0078125,0.005859375,0.005859375,10213.041000000001,-19.5,0.125,-19.25
876,10223.025,10.19140625,-0.1640625,-0.421875,10222.83,0.001953125,0.0,-0.005859375,10223.134999999998,-19.5,0.125,-19.25
877,10234.921,10.1953125,-0.15234375,-0.3828125,10233.0,0.00390625,-0.01171875,-0.005859375,10235.017,-20.125,-0.375,-20.4375
878,10244.958,10.1875,-0.18359375,-0.3828125,10242.983,-0.001953125,-0.001953125,0.0,10244.853000000001,-19.875,-0.125,-20.5
879,10254.826,10.1796875,-0.19140625,-0.35546875,10253.095,-0.00390625,-0.0234375,-0.00390625,10254.836,-20.0,-0.125,-19.125
880,10264.699999999999,10.1875,-0.15234375,-0.41015625,10262.807999999999,-0.015625,-0.05859375,-0.001953125,10264.709,-20.4375,0.3125,-17.625
881,10284.458,10.1953125,-0.125,-0.515625,10282.975,-0.009765625,-0.083984375,0.001953125,10284.463,-19.8125,0.5,-21.125
882,10294.337000000001,10.15625,-0.14453125,-0.44921875,10292.943,0.0078125,-0.025390625,0.0078125,10294.34,-19.5625,-0.0625,-18.5
883,10302.945,10.14453125,-0.1328125,-0.4296875,10302.989,-0.001953125,0.0,-0.001953125,10303.041000000001,-19.6875,0.5,-19.75
884,10313.331,10.17578125,-0.046875,-0.48046875,10313.012999999999,0.0,0.01171875,0.0,10313.042,-19.4375,-0.3125,-19.875
885,10322.967,10.1328125,-0.14453125,-0.44921875,10322.92,-0.01171875,0.01171875,-0.0078125,10322.951,-20.375,0.125,-18.25
886,10343.257,10.20703125,-0.1328125,-0.44140625,10342.846,-0.0078125,0.02734375,0.005859375,10342.79,-20.3125,0.5,-18.25
887,10353.009,10.19140625,-0.14453125,-0.39453125,10352.94,-0.001953125,0.013671875,-0.00390625,10352.911,-19.9375,0.125,-19.75
888,10363.116,10.171875,-0.1328125,-0.35546875,10363.066,0.001953125,-0.01171875,0.00390625,10363.08,-19.5,-0.3125,-19.25
889,10372.866,10.1796875,-0.171875,-0.3828125,10372.872,-0.00390625,-0.01953125,-0.001953125,10373.056,-19.5,-0.3125,-19.25
890,10394.992999999999,10.22265625,-0.2109375,-0.44140625,10393.034,0.00390625,-0.01171875,0.0,10394.999,-18.875,0.3125,-20.75
891,10404.925000000001,10.22265625,-0.15234375,-0.41015625,10402.936,0.005859375,-0.00390625,0.0078125,10404.930999999999,-19.5,0.125,-19.25
892,10414.780999999999,10.2265625,-0.19140625,-0.36328125,10412.925,-0.009765625,0.0,-0.005859375,10414.893,-19.75,0.125,-19.125
893,10424.802,10.24609375,-0.15234375,-0.41015625,10423.033,0.0078125,0.01171875,0.005859375,10424.804999999998,-19.5,0.5,-19.1875
894,10444.425000000001,10.17578125,-0.125,-0.4296875,10443.142,-0.001953125,0.005859375,0.005859375,10444.429,-20.0,0.3125,-19.0625
895,10452.921,10.14453125,-0.11328125,-0.44921875,10452.885999999999,-0.005859375,-0.001953125,-0.00390625,10452.916,-19.5625,0.5,-18.4375
896,10463.151999999998,10.1875,-0.0859375,-0.40234375,10462.934000000001,-0.00390625,-0.01171875,0.0,10463.063,-20.6875,0.125,-17.5625
897,10473.215,10.14453125,-0.10546875,-0.44921875,10472.967,-0.001953125,0.0,0.005859375,10472.996000000001,-20.375,-0.5625,-18.3125
898,10493.402,10.1875,-0.125,-0.4296875,10492.922999999999,0.00390625,-0.0078125,0.01953125,10493.111,-19.875,-0.375,-20.5
899,10503.119,10.14453125,-0.125,-0.421875,10503.052,-0.01171875,-0.001953125,-0.005859375,10503.021999999999,-20.1875,0.6875,-19.625
900,10512.998,10.15625,-0.11328125,-0.44140625,10512.931,0.005859375,0.001953125,-0.001953125,10512.901,-19.625,0.3125,-17.8125
901,10523.092,10.1484375,-0.1640625,-0.421875,10523.054,-0.005859375,0.001953125,-0.001953125,10523.066,-19.9375,0.5,-19.6875
902,10545.121,10.1953125,-0.171875,-0.41015625,10543.005000000001,-0.00390625,0.01171875,0.009765625,10545.231,-19.875,0.25,-20.5
903,10555.178,10.19140625,-0.1640625,-0.32421875,10553.003,-0.001953125,0.009765625,-0.009765625,10555.184000000001,-19.875,0.5,-20.4375
904,10564.889000000001,10.18359375,-0.1640625,-0.41015625,10562.896,0.001953125,-0.009765625,0.00390625,10564.895,-20.125,0.0625,-20.4375
905,10574.746,10.16015625,-0.10546875,-0.4296875,10573.055999999999,-0.005859375,-0.013671875,-0.0078125,10574.555999999999,-20.0,-0.125,-19.125
906,10584.572,10.1875,-0.1328125,-0.421875,10583.154999999999,0.0,-0.02734375,-0.001953125,10584.478000000001,-20.3125,0.0625,-21.0
907,10594.484,10.14453125,-0.1640625,-0.39453125,10593.107,-0.001953125,-0.048828125,-0.015625,10594.487000000001,-19.8125,-0.125,-18.4375
908,10604.384,10.18359375,-0.125,-0.52734375,10602.99,0.0,-0.03515625,0.001953125,10604.388,-20.6875,-0.3125,-17.5625
909,10623.007,10.15625,-0.1640625,-0.4609375,10622.958999999999,0.005859375,-0.0078125,0.00390625,10623.030999999999,-20.5,0.0625,-19.625
910,10632.262,10.14453125,-0.11328125,-0.44921875,10630.49,0.001953125,-0.001953125,0.0078125,10632.269,-20.5,0.0625,-19.625
911,10645.499,10.109375,-0.1640625,-0.41015625,10645.619999999999,0.001953125,0.0,0.001953125,10645.778999999999,-20.1875,0.5,-19.625
912,10665.498,10.1484375,-0.14453125,-0.421875,10665.46,0.00390625,-0.01171875,0.013671875,10665.601999999999,-20.1875,0.125,-19.6875
913,10675.63,10.19140625,-0.1328125,-0.4609375,10673.25,0.00390625,-0.0078125,-0.001953125,10675.439,-20.375,-0.125,-18.3125
914,10685.501,10.1875,-0.1328125,-0.41015625,10683.104,0.009765625,-0.0078125,0.00390625,10685.372,-20.0,0.3125,-19.0625
915,10695.177,10.1875,-0.15234375,-0.421875,10693.024,0.0078125,-0.01953125,-0.00390625,10695.089,-19.9375,0.125,-19.75
916,10705.06,10.18359375,-0.15234375,-0.4296875,10703.064,-0.00390625,-0.03125,-0.005859375,10705.062,-20.75,0.75,-16.8125
917,10715.014,10.22265625,-0.171875,-0.44921875,10713.202000000001,-0.00390625,-0.0234375,0.001953125,10714.821,-20.125,0.5,-17.6875
918,10735.612,10.19140625,-0.171875,-0.44140625,10735.718,0.00390625,0.02734375,-0.013671875,10735.613000000001,-20.9375,0.5,-17.5
919,10742.488,10.23046875,-0.171875,-0.421875,10740.558,-0.005859375,0.037109375,-0.01171875,10742.498,-20.9375,0.5,-17.5
920,10753.025,10.15625,-0.15234375,-0.46875,10752.957,-0.001953125,0.044921875,-0.00390625,10752.966,-20.3125,-0.3125,-19.0625
921,10763.325,10.13671875,-0.11328125,-0.4296875,10763.045999999998,-0.001953125,0.037109375,-0.005859375,10763.033,-20.5625,0.125,-18.9375
922,10773.101,10.18359375,-0.1328125,-0.40234375,10772.956,-0.005859375,0.029296875,-0.005859375,10772.927,-20.5,0.0625,-19.625
923,10795.481,10.14453125,-0.14453125,-0.421875,10795.398000000001,0.00390625,-0.009765625,0.005859375,10795.463,-20.125,0.9375,-20.375
924,10805.597,10.19140625,-0.15234375,-0.44921875,10805.606,-0.00390625,-0.0078125,-0.00390625,10805.645,-20.25,0.5,-19.0
925,10815.577,10.140625,-0.15234375,-0.46875,10815.686,0.00390625,0.013671875,0.00390625,10815.853000000001,-21.0625,0.25,-20.8125
926,10825.526,10.17578125,-0.1640625,-0.40234375,10825.583999999999,0.0,0.015625,0.005859375,10825.601,-21.125,0.125,-18.0625
927,10845.348,10.171875,-0.15234375,-0.34375,10843.01,0.00390625,0.009765625,0.0078125,10845.374,-20.1875,0.9375,-19.625
928,10855.233999999999,10.18359375,-0.1640625,-0.39453125,10853.071999999998,0.001953125,0.005859375,0.001953125,10855.126,-21.1875,0.0625,-19.4375
929,10865.035,10.17578125,-0.11328125,-0.39453125,10863.033,-0.00390625,0.00390625,-0.001953125,10865.038,-20.375,-0.125,-18.3125
930,10874.998,10.1953125,-0.1640625,-0.41015625,10873.232,0.005859375,0.0,-0.00390625,10875.000999999998,-20.25,0.3125,-19.0
931,10894.72,10.15234375,-0.19921875,-0.44140625,10893.02,-0.00390625,0.001953125,-0.001953125,10894.726,-19.75,0.3125,-19.125
932,10904.583999999999,10.1953125,-0.125,-0.44140625,10903.114,0.005859375,0.009765625,0.00390625,10904.589,-20.625,0.5,-20.25
933,10914.569,10.171875,-0.1328125,-0.4609375,10913.153,0.00390625,-0.005859375,0.00390625,10914.479,-20.1875,0.125,-19.6875
934,10924.474,10.20703125,-0.14453125,-0.4296875,10923.04,-0.001953125,0.001953125,-0.00390625,10924.38,-20.875,0.3125,-18.125
935,10933.173,10.171875,-0.11328125,-0.40234375,10933.128999999999,-0.00390625,-0.005859375,-0.001953125,10933.154,-20.0,0.125,-19.0625
936,10955.512,10.1953125,-0.14453125,-0.48828125,10955.437,0.00390625,0.001953125,0.009765625,10955.664999999999,-20.875,0.75,-18.125
937,10965.565,10.1875,-0.19140625,-0.36328125,10965.57,0.001953125,0.0,-0.00390625,10965.738,-21.0625,0.3125,-18.0625
938,10975.534,10.1328125,-0.15234375,-0.48046875,10975.643,0.00390625,-0.001953125,-0.001953125,10975.969,-20.6875,-0.125,-20.3125
939,10985.452000000001,10.1484375,-0.1328125,-0.4296875,10983.124,0.005859375,0.009765625,0.00390625,10985.461000000001,-20.375,-0.3125,-18.3125
940,11005.327,10.171875,-0.1640625,-0.375,11003.023000000001,0.00390625,-0.001953125,0.009765625,11005.236,-21.375,-0.5625,-18.0625
941,11015.138,10.2265625,-0.15234375,-0.41015625,11013.171,-0.00390625,-0.01953125,-0.001953125,11015.141,-19.6875,0.5,-19.75
942,11025.07,10.171875,-0.1640625,-0.44140625,11023.092999999999,-0.00390625,-0.017578125,0.005859375,11025.074,-20.125,-0.125,-20.4375
943,11044.956,10.1796875,-0.1640625,-0.40234375,11043.091,-0.001953125,0.0,-0.001953125,11044.886,-19.75,0.125,-19.125
944,11054.689,10.140625,-0.171875,-0.4609375,11053.298,0.005859375,0.0,0.001953125,11054.695,-20.3125,0.75,-18.25
945,11065.595,10.171875,-0.1640625,-0.515625,11065.419,-0.001953125,-0.00390625,0.015625,11065.486,-20.0625,0.25,-21.0625
946,11075.628999999999,10.11328125,-0.11328125,-0.421875,11075.651,-0.00390625,0.0,0.00390625,11075.676,-19.625,0.125,-20.5625
947,11085.673,10.15625,-0.125,-0.4296875,11085.676,-0.01171875,0.001953125,-0.0078125,11085.701000000001,-19.9375,0.125,-19.75
948,11095.65,10.1171875,-0.10546875,-0.44140625,11095.503,-0.005859375,0.0,-0.00390625,11095.535,-20.0,-0.3125,-19.125
949,11115.73,10.1875,-0.1328125,-0.41015625,11115.653,-0.00390625,0.01171875,-0.0078125,11115.624,-20.25,0.125,-19.0
950,11125.658,10.15234375,-0.14453125,-0.4609375,11125.565999999999,-0.005859375,0.01171875,0.001953125,11125.577,-20.25,0.75,-19.0
951,11135.726999999999,10.19921875,-0.15234375,-0.41015625,11135.636999999999,0.001953125,0.02734375,0.0078125,11135.692000000001,-19.9375,-0.3125,-19.75
